time_s	gforce_x	gforce_y	gforce_z	lin_acc_x	lin_acc_y	lin_acc_z
0.003	0.01	0.04	0.99	-0.12	-0.07	-0.11
0.003	0.01	0.04	0.99	-0.03	0.04	-0.07
0.004	0.0	0.04	0.98	-0.03	0.04	-0.07
0.004	0.0	0.04	0.98	-0.06	0.01	-0.17
0.021	-0.01	0.02	1.01	-0.06	0.01	-0.17
0.021	-0.01	0.02	1.01	-0.15	-0.15	0.06
0.023	-0.01	0.03	1.0	-0.15	-0.15	0.06
0.024	-0.01	0.03	1.0	-0.16	-0.09	-0.04
0.034	0.01	0.05	1.0	-0.16	-0.09	-0.04
0.034	0.01	0.05	1.0	0.04	0.09	0.0
0.043	-0.02	0.01	1.0	0.04	0.09	0.0
0.044	-0.02	0.01	1.0	-0.27	-0.25	0.02
0.054	0.0	0.03	1.0	-0.27	-0.25	0.02
0.054	0.0	0.03	1.0	-0.1	-0.11	0.01
0.063	-0.01	0.03	1.01	-0.1	-0.11	0.01
0.064	-0.01	0.03	1.01	-0.22	-0.1	0.13
0.073	-0.02	0.02	1.01	-0.22	-0.1	0.13
0.074	-0.02	0.02	1.01	-0.24	-0.15	0.11
0.083	0.01	0.04	0.93	-0.24	-0.15	0.11
0.084	0.01	0.04	0.93	0.07	0.05	-0.7
0.093	0.06	0.07	0.92	0.07	0.05	-0.7
0.094	0.06	0.07	0.92	0.52	0.33	-0.76
0.103	-0.01	0.02	1.04	0.52	0.33	-0.76
0.104	-0.01	0.02	1.04	-0.19	-0.16	0.37
0.113	-0.03	0.04	1.01	-0.19	-0.16	0.37
0.114	-0.03	0.04	1.01	-0.34	0.03	0.12
0.123	0.01	0.06	1.0	-0.34	0.03	0.12
0.124	0.01	0.06	1.0	-0.03	0.25	-0.03
0.133	-0.01	0.04	1.01	-0.03	0.25	-0.03
0.134	-0.01	0.04	1.01	-0.19	0.04	0.08
0.143	-0.02	0.02	1.03	-0.19	0.04	0.08
0.144	-0.02	0.02	1.03	-0.35	-0.19	0.25
0.154	-0.01	0.04	1.01	-0.35	-0.19	0.25
0.154	-0.01	0.04	1.01	-0.17	0.02	0.06
0.171	-0.01	0.03	1.0	-0.17	0.02	0.06
0.171	-0.01	0.03	1.0	-0.19	-0.05	0.04
0.173	-0.01	0.02	1.0	-0.19	-0.05	0.04
0.174	-0.01	0.02	1.0	-0.18	-0.11	0.0
0.184	0.0	0.03	1.01	-0.18	-0.11	0.0
0.184	0.0	0.03	1.01	-0.12	-0.09	0.05
0.194	0.0	0.03	1.01	-0.12	-0.09	0.05
0.195	0.0	0.03	1.01	-0.12	-0.05	0.09
0.203	0.0	0.03	1.01	-0.12	-0.05	0.09
0.204	0.0	0.03	1.01	-0.14	-0.04	0.08
0.213	0.0	0.03	1.01	-0.14	-0.04	0.08
0.214	0.0	0.03	1.01	-0.13	-0.05	0.06
0.223	0.0	0.03	1.0	-0.13	-0.05	0.06
0.224	0.0	0.03	1.0	-0.12	-0.04	0.04
0.234	0.0	0.03	1.01	-0.12	-0.04	0.04
0.234	0.0	0.03	1.01	-0.13	-0.03	0.05
0.245	0.0	0.03	1.01	-0.13	-0.03	0.05
0.245	0.0	0.03	1.01	-0.13	-0.04	0.07
0.254	0.0	0.03	1.01	-0.13	-0.04	0.07
0.254	0.0	0.03	1.01	-0.12	-0.04	0.11
0.263	0.0	0.03	1.01	-0.12	-0.04	0.11
0.264	0.0	0.03	1.01	-0.12	-0.04	0.08
0.273	0.0	0.03	1.01	-0.12	-0.04	0.08
0.274	0.0	0.03	1.01	-0.11	-0.04	0.06
0.286	0.0	0.03	1.01	-0.11	-0.04	0.06
0.287	0.0	0.03	1.01	-0.12	-0.05	0.06
0.295	0.0	0.03	1.01	-0.12	-0.05	0.06
0.295	0.0	0.03	1.01	-0.11	-0.04	0.07
0.303	0.0	0.03	1.01	-0.11	-0.04	0.07
0.304	0.0	0.03	1.01	-0.1	-0.02	0.07
0.313	0.0	0.03	1.01	-0.1	-0.02	0.07
0.314	0.0	0.03	1.01	-0.1	0.0	0.06
0.324	0.0	0.03	1.01	-0.1	0.0	0.06
0.324	0.0	0.03	1.01	-0.09	0.0	0.07
0.334	0.0	0.04	1.01	-0.09	0.0	0.07
0.334	0.0	0.04	1.01	-0.09	0.03	0.06
0.345	0.0	0.04	1.0	-0.09	0.03	0.06
0.346	0.0	0.04	1.0	-0.08	0.02	0.04
0.353	0.0	0.04	1.0	-0.08	0.02	0.04
0.354	0.0	0.04	1.0	-0.07	0.03	0.03
0.364	0.0	0.04	1.0	-0.07	0.03	0.03
0.364	0.0	0.04	1.0	-0.07	0.05	0.02
0.374	0.0	0.04	1.0	-0.07	0.05	0.02
0.374	0.0	0.04	1.0	-0.08	0.04	0.0
0.386	0.0	0.04	1.0	-0.08	0.04	0.0
0.387	0.0	0.04	1.0	-0.09	0.03	0.02
0.394	0.0	0.04	1.0	-0.09	0.03	0.02
0.395	0.0	0.04	1.0	-0.08	0.02	0.02
0.404	0.0	0.03	1.0	-0.08	0.02	0.02
0.404	0.0	0.03	1.0	-0.06	0.0	0.02
0.414	0.0	0.03	1.01	-0.06	0.0	0.02
0.414	0.0	0.03	1.01	-0.06	-0.03	0.06
0.423	0.0	0.03	1.01	-0.06	-0.03	0.06
0.424	0.0	0.03	1.01	-0.06	-0.05	0.07
0.434	0.01	0.03	1.01	-0.06	-0.05	0.07
0.435	0.01	0.03	1.01	-0.05	-0.05	0.06
0.444	0.01	0.03	1.0	-0.05	-0.05	0.06
0.445	0.01	0.03	1.0	-0.04	-0.05	0.05
0.454	0.01	0.03	1.0	-0.04	-0.05	0.05
0.454	0.01	0.03	1.0	-0.03	-0.05	0.01
0.464	0.01	0.03	1.0	-0.03	-0.05	0.01
0.465	0.01	0.03	1.0	-0.04	-0.05	-0.03
0.474	0.01	0.03	1.0	-0.04	-0.05	-0.03
0.474	0.01	0.03	1.0	-0.05	-0.06	-0.01
0.484	0.0	0.03	1.0	-0.05	-0.06	-0.01
0.485	0.0	0.03	1.0	-0.06	-0.06	0.01
0.494	0.01	0.03	1.0	-0.06	-0.06	0.01
0.495	0.01	0.03	1.0	-0.06	-0.06	0.03
0.504	0.01	0.03	1.0	-0.06	-0.06	0.03
0.504	0.01	0.03	1.0	-0.04	-0.05	0.04
0.514	0.01	0.03	1.0	-0.04	-0.05	0.04
0.516	0.01	0.03	1.0	-0.05	-0.01	0.03
0.524	0.01	0.03	1.0	-0.05	-0.01	0.03
0.525	0.01	0.03	1.0	-0.05	0.0	0.02
0.534	0.01	0.03	1.0	-0.05	0.0	0.02
0.535	0.01	0.03	1.0	-0.05	0.01	0.03
0.547	0.01	0.04	1.0	-0.05	0.01	0.03
0.549	0.01	0.04	1.0	-0.05	0.01	0.02
0.554	0.01	0.04	1.0	-0.05	0.01	0.02
0.555	0.01	0.04	1.0	-0.07	0.01	0.04
0.564	0.01	0.03	1.0	-0.07	0.01	0.04
0.566	0.01	0.03	1.0	-0.08	0.0	0.05
0.574	0.01	0.04	1.0	-0.08	0.0	0.05
0.575	0.01	0.04	1.0	-0.08	0.01	0.04
0.59	0.0	0.04	1.0	-0.08	0.01	0.04
0.593	0.0	0.04	1.0	-0.09	0.01	0.04
0.595	0.0	0.04	1.0	-0.09	0.01	0.04
0.595	0.0	0.04	1.0	-0.08	0.01	0.03
0.61	0.0	0.04	1.0	-0.08	0.01	0.03
0.611	0.0	0.04	1.0	-0.08	0.01	0.03
0.614	0.0	0.03	1.0	-0.08	0.01	0.03
0.615	0.0	0.03	1.0	-0.08	-0.01	0.02
0.624	0.01	0.03	1.0	-0.08	-0.01	0.02
0.625	0.01	0.03	1.0	-0.07	0.0	0.04
0.634	0.01	0.04	1.0	-0.07	0.0	0.04
0.635	0.01	0.04	1.0	-0.07	0.0	0.05
0.644	0.01	0.03	1.01	-0.07	0.0	0.05
0.646	0.01	0.03	1.01	-0.08	-0.01	0.08
0.654	0.0	0.03	1.01	-0.08	-0.01	0.08
0.655	0.0	0.03	1.01	-0.09	-0.01	0.07
0.664	0.0	0.03	1.01	-0.09	-0.01	0.07
0.665	0.0	0.03	1.01	-0.09	-0.03	0.06
0.674	0.0	0.03	1.01	-0.09	-0.03	0.06
0.675	0.0	0.03	1.01	-0.1	-0.02	0.07
0.688	0.0	0.03	1.0	-0.1	-0.02	0.07
0.689	0.0	0.03	1.0	-0.11	0.0	0.04
0.703	0.0	0.03	1.0	-0.11	0.0	0.04
0.705	0.0	0.03	1.0	-0.11	-0.01	0.04
0.706	0.0	0.03	1.0	-0.11	-0.01	0.04
0.708	0.0	0.03	1.0	-0.12	-0.02	0.02
0.715	0.0	0.03	1.0	-0.12	-0.02	0.02
0.717	0.0	0.03	1.0	-0.12	-0.05	0.03
0.724	0.0	0.03	1.0	-0.12	-0.05	0.03
0.727	0.0	0.03	1.0	-0.11	-0.06	0.03
0.734	0.0	0.03	1.0	-0.11	-0.06	0.03
0.736	0.0	0.03	1.0	-0.1	-0.09	0.04
0.744	0.0	0.03	1.0	-0.1	-0.09	0.04
0.747	0.0	0.03	1.0	-0.1	-0.08	0.01
0.754	0.0	0.03	1.0	-0.1	-0.08	0.01
0.755	0.0	0.03	1.0	-0.08	-0.08	0.01
0.771	0.0	0.03	1.0	-0.08	-0.08	0.01
0.774	0.0	0.03	1.0	-0.08	-0.07	0.01
0.776	0.0	0.03	1.0	-0.08	-0.07	0.01
0.777	0.0	0.03	1.0	-0.08	-0.07	0.02
0.79	0.0	0.03	1.0	-0.08	-0.07	0.02
0.791	0.0	0.03	1.0	-0.09	-0.08	0.03
0.801	0.0	0.03	1.0	-0.09	-0.08	0.03
0.803	0.0	0.03	1.0	-0.08	-0.06	0.04
0.805	0.0	0.03	1.0	-0.08	-0.06	0.04
0.806	0.0	0.03	1.0	-0.09	-0.04	0.03
0.815	0.0	0.03	1.0	-0.09	-0.04	0.03
0.816	0.0	0.03	1.0	-0.08	-0.03	0.01
0.823	0.0	0.03	1.0	-0.08	-0.03	0.01
0.825	0.0	0.03	1.0	-0.09	-0.02	-0.01
0.834	0.0	0.03	1.0	-0.09	-0.02	-0.01
0.836	0.0	0.03	1.0	-0.08	-0.01	-0.01
0.844	0.0	0.03	1.0	-0.08	-0.01	-0.01
0.846	0.0	0.03	1.0	-0.09	-0.01	0.01
0.854	0.0	0.03	1.0	-0.09	-0.01	0.01
0.855	0.0	0.03	1.0	-0.08	-0.03	0.03
0.864	0.0	0.04	1.01	-0.08	-0.03	0.03
0.865	0.0	0.04	1.01	-0.07	0.02	0.08
0.875	0.01	0.03	1.01	-0.07	0.02	0.08
0.879	0.01	0.03	1.01	-0.05	0.0	0.09
0.895	0.01	0.04	1.01	-0.05	0.0	0.09
0.897	0.01	0.04	1.01	-0.07	0.01	0.07
0.898	0.01	0.04	1.01	-0.07	0.01	0.07
0.899	0.01	0.04	1.01	-0.06	0.01	0.06
0.905	0.01	0.04	1.01	-0.06	0.01	0.06
0.906	0.01	0.04	1.01	-0.05	0.02	0.05
0.914	0.01	0.04	1.0	-0.05	0.02	0.05
0.916	0.01	0.04	1.0	-0.05	0.01	0.05
0.924	0.01	0.04	1.01	-0.05	0.01	0.05
0.925	0.01	0.04	1.01	-0.06	0.02	0.06
0.934	0.01	0.04	1.0	-0.06	0.02	0.06
0.936	0.01	0.04	1.0	-0.06	0.01	0.05
0.944	0.01	0.04	1.0	-0.06	0.01	0.05
0.946	0.01	0.04	1.0	-0.04	0.01	0.04
0.954	0.01	0.03	1.0	-0.04	0.01	0.04
0.955	0.01	0.03	1.0	-0.05	-0.01	0.04
0.97	0.01	0.03	1.0	-0.05	-0.01	0.04
0.972	0.01	0.03	1.0	-0.05	-0.01	0.04
0.975	0.01	0.04	1.01	-0.05	-0.01	0.04
0.976	0.01	0.04	1.01	-0.05	0.0	0.06
0.988	0.01	0.04	1.0	-0.05	0.0	0.06
0.99	0.01	0.04	1.0	-0.06	0.0	0.05
0.997	0.01	0.04	1.01	-0.06	0.0	0.05
0.998	0.01	0.04	1.01	-0.06	0.01	0.06
1.005	0.01	0.04	1.01	-0.06	0.01	0.06
1.007	0.01	0.04	1.01	-0.06	0.03	0.06
1.015	0.01	0.04	1.01	-0.06	0.03	0.06
1.018	0.01	0.04	1.01	-0.06	0.02	0.06
1.025	0.01	0.04	1.0	-0.06	0.02	0.06
1.026	0.01	0.04	1.0	-0.07	0.02	0.04
1.034	0.01	0.04	1.0	-0.07	0.02	0.04
1.036	0.01	0.04	1.0	-0.06	0.01	0.04
1.046	0.01	0.04	1.0	-0.06	0.01	0.04
1.048	0.01	0.04	1.0	-0.05	0.01	0.05
1.053	0.01	0.04	1.01	-0.05	0.01	0.05
1.054	0.01	0.04	1.01	-0.03	-0.01	0.07
1.064	0.01	0.04	1.01	-0.03	-0.01	0.07
1.065	0.01	0.04	1.01	-0.04	0.0	0.08
1.074	0.01	0.04	1.01	-0.04	0.0	0.08
1.077	0.01	0.04	1.01	-0.04	0.0	0.09
1.089	0.01	0.04	1.01	-0.04	0.0	0.09
1.094	0.01	0.04	1.01	-0.04	0.02	0.07
1.095	0.01	0.04	1.01	-0.04	0.02	0.07
1.096	0.01	0.04	1.01	-0.04	0.02	0.06
1.104	0.01	0.04	1.01	-0.04	0.02	0.06
1.105	0.01	0.04	1.01	-0.06	0.02	0.07
1.114	0.01	0.04	1.0	-0.06	0.02	0.07
1.116	0.01	0.04	1.0	-0.06	0.02	0.03
1.126	0.01	0.04	1.0	-0.06	0.02	0.03
1.127	0.01	0.04	1.0	-0.07	0.01	0.03
1.134	0.01	0.04	1.0	-0.07	0.01	0.03
1.135	0.01	0.04	1.0	-0.07	0.03	0.01
1.145	0.01	0.04	1.0	-0.07	0.03	0.01
1.147	0.01	0.04	1.0	-0.05	0.02	0.0
1.154	0.01	0.04	1.0	-0.05	0.02	0.0
1.155	0.01	0.04	1.0	-0.06	0.01	-0.01
1.164	0.01	0.04	1.0	-0.06	0.01	-0.01
1.165	0.01	0.04	1.0	-0.07	0.01	0.0
1.174	0.01	0.04	1.0	-0.07	0.01	0.0
1.179	0.01	0.04	1.0	-0.06	0.01	0.02
1.191	0.01	0.04	1.0	-0.06	0.01	0.02
1.195	0.01	0.04	1.0	-0.04	0.02	0.03
1.196	0.01	0.04	1.0	-0.04	0.02	0.03
1.197	0.01	0.04	1.0	-0.04	0.02	0.03
1.204	0.01	0.04	1.0	-0.04	0.02	0.03
1.206	0.01	0.04	1.0	-0.04	0.04	0.03
1.214	0.01	0.04	1.01	-0.04	0.04	0.03
1.217	0.01	0.04	1.01	-0.08	0.02	0.07
1.229	0.01	0.04	1.01	-0.08	0.02	0.07
1.231	0.01	0.04	1.01	-0.08	0.02	0.07
1.234	0.01	0.04	1.01	-0.08	0.02	0.07
1.235	0.01	0.04	1.01	-0.08	0.02	0.08
1.244	0.01	0.04	1.01	-0.08	0.02	0.08
1.246	0.01	0.04	1.01	-0.07	0.02	0.07
1.254	0.01	0.04	1.0	-0.07	0.02	0.07
1.255	0.01	0.04	1.0	-0.08	0.01	0.05
1.264	0.01	0.04	1.0	-0.08	0.01	0.05
1.266	0.01	0.04	1.0	-0.07	0.04	0.03
1.274	0.01	0.04	1.0	-0.07	0.04	0.03
1.275	0.01	0.04	1.0	-0.08	0.03	0.0
1.288	0.01	0.04	1.0	-0.08	0.03	0.0
1.291	0.01	0.04	1.0	-0.08	0.01	0.0
1.296	0.01	0.04	1.0	-0.08	0.01	0.0
1.297	0.01	0.04	1.0	-0.09	0.0	0.02
1.304	0.01	0.04	1.0	-0.09	0.0	0.02
1.305	0.01	0.04	1.0	-0.09	-0.01	0.03
1.314	0.01	0.03	1.0	-0.09	-0.01	0.03
1.315	0.01	0.03	1.0	-0.08	-0.02	0.04
1.326	0.01	0.03	1.0	-0.08	-0.02	0.04
1.327	0.01	0.03	1.0	-0.06	-0.02	0.03
1.334	0.01	0.04	1.0	-0.06	-0.02	0.03
1.335	0.01	0.04	1.0	-0.07	-0.01	0.04
1.344	0.01	0.04	1.01	-0.07	-0.01	0.04
1.346	0.01	0.04	1.01	-0.07	0.0	0.05
1.355	0.01	0.04	1.01	-0.07	0.0	0.05
1.356	0.01	0.04	1.01	-0.08	0.01	0.06
1.364	0.01	0.04	1.01	-0.08	0.01	0.06
1.366	0.01	0.04	1.01	-0.09	-0.01	0.06
1.386	0.0	0.04	1.01	-0.09	-0.01	0.06
1.388	0.0	0.04	1.01	-0.09	0.0	0.05
1.389	0.0	0.04	1.0	-0.09	0.0	0.05
1.39	0.0	0.04	1.0	-0.09	0.0	0.03
1.4	0.0	0.04	1.0	-0.09	0.0	0.03
1.402	0.0	0.04	1.0	-0.11	0.0	0.02
1.405	0.0	0.03	1.0	-0.11	0.0	0.02
1.406	0.0	0.03	1.0	-0.11	-0.02	0.02
1.414	0.0	0.03	1.0	-0.11	-0.02	0.02
1.416	0.0	0.03	1.0	-0.09	-0.02	0.04
1.424	0.01	0.04	1.0	-0.09	-0.02	0.04
1.426	0.01	0.04	1.0	-0.08	-0.01	0.03
1.434	0.01	0.03	1.0	-0.08	-0.01	0.03
1.435	0.01	0.03	1.0	-0.07	-0.01	0.02
1.445	0.01	0.04	1.0	-0.07	-0.01	0.02
1.446	0.01	0.04	1.0	-0.07	0.0	0.01
1.454	0.0	0.03	1.0	-0.07	0.0	0.01
1.455	0.0	0.03	1.0	-0.08	-0.03	0.02
1.464	0.01	0.03	1.0	-0.08	-0.03	0.02
1.465	0.01	0.03	1.0	-0.07	-0.01	0.02
1.487	0.0	0.03	1.01	-0.07	-0.01	0.02
1.489	0.0	0.03	1.01	-0.1	-0.02	0.05
1.491	0.0	0.03	1.01	-0.1	-0.02	0.05
1.492	0.0	0.03	1.01	-0.09	-0.01	0.07
1.499	0.0	0.03	1.01	-0.09	-0.01	0.07
1.501	0.0	0.03	1.01	-0.09	-0.01	0.06
1.507	0.01	0.04	1.01	-0.09	-0.01	0.06
1.509	0.01	0.04	1.01	-0.07	0.0	0.05
1.514	0.01	0.04	1.0	-0.07	0.0	0.05
1.516	0.01	0.04	1.0	-0.07	0.0	0.04
1.526	0.0	0.03	1.0	-0.07	0.0	0.04
1.528	0.0	0.03	1.0	-0.08	-0.01	0.03
1.534	0.0	0.03	1.0	-0.08	-0.01	0.03
1.536	0.0	0.03	1.0	-0.07	-0.03	0.04
1.544	0.0	0.03	1.0	-0.07	-0.03	0.04
1.546	0.0	0.03	1.0	-0.07	-0.02	0.03
1.554	0.0	0.03	1.0	-0.07	-0.02	0.03
1.555	0.0	0.03	1.0	-0.07	-0.01	0.03
1.564	0.01	0.03	1.0	-0.07	-0.01	0.03
1.565	0.01	0.03	1.0	-0.06	-0.01	0.05
1.577	0.0	0.03	1.0	-0.06	-0.01	0.05
1.578	0.0	0.03	1.0	-0.06	-0.01	0.05
1.59	0.0	0.03	1.01	-0.06	-0.01	0.05
1.591	0.0	0.03	1.01	-0.06	-0.02	0.05
1.594	0.0	0.03	1.0	-0.06	-0.02	0.05
1.595	0.0	0.03	1.0	-0.05	-0.02	0.04
1.604	0.0	0.03	1.0	-0.05	-0.02	0.04
1.605	0.0	0.03	1.0	-0.05	-0.02	0.02
1.614	0.0	0.03	1.0	-0.05	-0.02	0.02
1.615	0.0	0.03	1.0	-0.05	-0.03	0.01
1.626	0.01	0.03	1.0	-0.05	-0.03	0.01
1.627	0.01	0.03	1.0	-0.04	-0.02	0.0
1.634	0.0	0.03	1.0	-0.04	-0.02	0.0
1.635	0.0	0.03	1.0	-0.05	-0.04	0.03
1.644	0.0	0.03	1.01	-0.05	-0.04	0.03
1.646	0.0	0.03	1.01	-0.07	-0.04	0.06
1.654	0.0	0.03	1.01	-0.07	-0.04	0.06
1.655	0.0	0.03	1.01	-0.08	-0.02	0.06
1.664	0.0	0.03	1.0	-0.08	-0.02	0.06
1.665	0.0	0.03	1.0	-0.08	-0.03	0.04
1.682	0.0	0.03	1.0	-0.08	-0.03	0.04
1.684	0.0	0.03	1.0	-0.07	-0.02	0.03
1.685	0.0	0.03	1.0	-0.07	-0.02	0.03
1.686	0.0	0.03	1.0	-0.07	-0.01	0.02
1.698	0.0	0.03	1.0	-0.07	-0.01	0.02
1.699	0.0	0.03	1.0	-0.05	-0.01	0.02
1.704	0.0	0.03	1.0	-0.05	-0.01	0.02
1.705	0.0	0.03	1.0	-0.05	0.0	0.01
1.714	0.0	0.03	1.0	-0.05	0.0	0.01
1.715	0.0	0.03	1.0	-0.05	-0.02	0.03
1.724	0.0	0.03	1.0	-0.05	-0.02	0.03
1.725	0.0	0.03	1.0	-0.05	-0.02	0.04
1.733	0.0	0.03	1.0	-0.05	-0.02	0.04
1.735	0.0	0.03	1.0	-0.05	-0.02	0.04
1.744	0.0	0.03	1.01	-0.05	-0.02	0.04
1.745	0.0	0.03	1.01	-0.05	-0.04	0.05
1.754	0.0	0.03	1.01	-0.05	-0.04	0.05
1.754	0.0	0.03	1.01	-0.06	-0.05	0.06
1.764	0.0	0.03	1.01	-0.06	-0.05	0.06
1.765	0.0	0.03	1.01	-0.05	-0.05	0.07
1.785	0.0	0.03	1.01	-0.05	-0.05	0.07
1.786	0.0	0.03	1.01	-0.07	-0.03	0.05
1.788	0.0	0.03	1.0	-0.07	-0.03	0.05
1.789	0.0	0.03	1.0	-0.05	-0.03	0.03
1.8	0.0	0.03	1.0	-0.05	-0.03	0.03
1.801	0.0	0.03	1.0	-0.05	-0.02	0.0
1.804	0.0	0.03	1.0	-0.05	-0.02	0.0
1.805	0.0	0.03	1.0	-0.03	-0.01	-0.02
1.814	0.0	0.03	1.0	-0.03	-0.01	-0.02
1.817	0.0	0.03	1.0	-0.02	-0.02	-0.03
1.826	0.0	0.03	1.0	-0.02	-0.02	-0.03
1.828	0.0	0.03	1.0	-0.04	-0.01	0.0
1.834	0.0	0.03	1.0	-0.04	-0.01	0.0
1.834	0.0	0.03	1.0	-0.06	0.0	0.04
1.844	0.0	0.03	1.01	-0.06	0.0	0.04
1.845	0.0	0.03	1.01	-0.07	-0.02	0.07
1.854	0.0	0.03	1.01	-0.07	-0.02	0.07
1.856	0.0	0.03	1.01	-0.06	-0.02	0.05
1.864	0.0	0.03	1.0	-0.06	-0.02	0.05
1.865	0.0	0.03	1.0	-0.04	-0.02	0.03
1.887	0.0	0.03	1.0	-0.04	-0.02	0.03
1.889	0.0	0.03	1.0	-0.05	0.0	0.01
1.89	0.0	0.03	1.0	-0.05	0.0	0.01
1.891	0.0	0.03	1.0	-0.05	0.01	0.01
1.904	0.0	0.03	1.0	-0.05	0.01	0.01
1.906	0.0	0.03	1.0	-0.05	0.01	0.0
1.907	0.0	0.03	1.0	-0.05	0.01	0.0
1.907	0.0	0.03	1.0	-0.05	0.02	0.0
1.914	0.0	0.03	1.0	-0.05	0.02	0.0
1.914	0.0	0.03	1.0	-0.05	0.03	0.01
1.924	0.0	0.03	1.01	-0.05	0.03	0.01
1.926	0.0	0.03	1.01	-0.04	0.02	0.05
1.934	0.0	0.03	1.01	-0.04	0.02	0.05
1.935	0.0	0.03	1.01	-0.05	0.0	0.07
1.944	0.0	0.03	1.01	-0.05	0.0	0.07
1.945	0.0	0.03	1.01	-0.04	0.0	0.07
1.954	0.0	0.03	1.01	-0.04	0.0	0.07
1.955	0.0	0.03	1.01	-0.04	0.0	0.07
1.964	0.0	0.03	1.01	-0.04	0.0	0.07
1.965	0.0	0.03	1.01	-0.05	0.0	0.07
1.986	0.0	0.03	1.01	-0.05	0.0	0.07
1.988	0.0	0.03	1.01	-0.05	-0.01	0.06
1.989	0.0	0.03	1.01	-0.05	-0.01	0.06
1.989	0.0	0.03	1.01	-0.04	0.01	0.08
2.001	0.0	0.03	1.01	-0.04	0.01	0.08
2.002	0.0	0.03	1.01	-0.04	0.01	0.08
2.005	0.0	0.03	1.01	-0.04	0.01	0.08
2.006	0.0	0.03	1.01	-0.03	0.02	0.07
2.014	0.0	0.03	1.01	-0.03	0.02	0.07
2.017	0.0	0.03	1.01	-0.02	0.0	0.05
2.024	0.0	0.03	1.0	-0.02	0.0	0.05
2.026	0.0	0.03	1.0	-0.04	-0.01	0.02
2.034	0.0	0.03	1.0	-0.04	-0.01	0.02
2.035	0.0	0.03	1.0	-0.03	-0.01	0.01
2.045	0.0	0.03	1.0	-0.03	-0.01	0.01
2.047	0.0	0.03	1.0	-0.05	-0.02	0.01
2.055	0.0	0.03	1.0	-0.05	-0.02	0.01
2.056	0.0	0.03	1.0	-0.06	-0.03	0.01
2.065	0.0	0.03	1.0	-0.06	-0.03	0.01
2.065	0.0	0.03	1.0	-0.06	-0.04	0.02
2.089	0.0	0.02	1.0	-0.06	-0.04	0.02
2.09	0.0	0.02	1.0	-0.05	-0.04	0.02
2.091	0.0	0.03	1.0	-0.05	-0.04	0.02
2.093	0.0	0.03	1.0	-0.05	-0.02	0.02
2.094	0.0	0.03	1.0	-0.05	-0.02	0.02
2.095	0.0	0.03	1.0	-0.05	-0.03	0.02
2.107	0.0	0.03	1.0	-0.05	-0.03	0.02
2.109	0.0	0.03	1.0	-0.04	-0.03	0.01
2.114	0.0	0.03	1.0	-0.04	-0.03	0.01
2.116	0.0	0.03	1.0	-0.04	-0.03	0.03
2.125	0.0	0.02	1.0	-0.04	-0.03	0.03
2.127	0.0	0.02	1.0	-0.04	-0.04	0.03
2.134	0.0	0.02	1.0	-0.04	-0.04	0.03
2.135	0.0	0.02	1.0	-0.04	-0.04	0.03
2.144	0.0	0.03	1.0	-0.04	-0.04	0.03
2.146	0.0	0.03	1.0	-0.03	-0.01	0.03
2.154	0.0	0.03	1.01	-0.03	-0.01	0.03
2.155	0.0	0.03	1.01	-0.04	0.0	0.05
2.163	0.0	0.03	1.0	-0.04	0.0	0.05
2.164	0.0	0.03	1.0	-0.04	0.0	0.05
2.179	0.0	0.03	1.0	-0.04	0.0	0.05
2.18	0.0	0.03	1.0	-0.03	0.0	0.04
2.184	0.0	0.03	1.0	-0.03	0.0	0.04
2.185	0.0	0.03	1.0	-0.03	0.0	0.01
2.194	0.0	0.03	1.0	-0.03	0.0	0.01
2.195	0.0	0.03	1.0	-0.02	0.0	0.0
2.204	0.0	0.03	1.0	-0.02	0.0	0.0
2.207	0.0	0.03	1.0	-0.02	0.0	-0.01
2.214	0.0	0.03	1.0	-0.02	0.0	-0.01
2.215	0.0	0.03	1.0	-0.03	0.02	-0.01
2.224	0.0	0.03	1.0	-0.03	0.02	-0.01
2.226	0.0	0.03	1.0	-0.02	-0.01	-0.01
2.234	0.0	0.03	1.0	-0.02	-0.01	-0.01
2.234	0.0	0.03	1.0	-0.02	0.0	0.0
2.244	0.0	0.03	1.0	-0.02	0.0	0.0
2.245	0.0	0.03	1.0	-0.03	-0.02	0.04
2.255	0.0	0.02	1.01	-0.03	-0.02	0.04
2.259	0.0	0.02	1.01	-0.03	-0.04	0.06
2.264	0.0	0.02	1.01	-0.03	-0.04	0.06
2.265	0.0	0.02	1.01	-0.03	-0.05	0.07
2.284	0.0	0.02	1.01	-0.03	-0.05	0.07
2.285	0.0	0.02	1.01	-0.03	-0.04	0.08
2.286	0.0	0.02	1.01	-0.03	-0.04	0.08
2.287	0.0	0.02	1.01	-0.03	-0.04	0.06
2.299	0.0	0.03	1.0	-0.03	-0.04	0.06
2.301	0.0	0.03	1.0	-0.02	-0.03	0.02
2.304	0.0	0.03	1.0	-0.02	-0.03	0.02
2.306	0.0	0.03	1.0	-0.02	-0.02	0.0
2.314	0.0	0.03	1.0	-0.02	-0.02	0.0
2.316	0.0	0.03	1.0	-0.02	-0.01	0.01
2.324	0.0	0.03	1.0	-0.02	-0.01	0.01
2.326	0.0	0.03	1.0	-0.03	-0.02	0.02
2.334	0.0	0.03	1.0	-0.03	-0.02	0.02
2.335	0.0	0.03	1.0	-0.04	-0.01	0.04
2.344	0.0	0.03	1.01	-0.04	-0.01	0.04
2.345	0.0	0.03	1.01	-0.04	-0.03	0.05
2.354	0.0	0.03	1.0	-0.04	-0.03	0.05
2.356	0.0	0.03	1.0	-0.04	-0.03	0.03
2.364	0.0	0.02	1.0	-0.04	-0.03	0.03
2.365	0.0	0.02	1.0	-0.02	-0.04	0.02
2.386	0.0	0.03	1.0	-0.02	-0.04	0.02
2.387	0.0	0.03	1.0	-0.02	-0.02	0.02
2.388	0.0	0.03	1.0	-0.02	-0.02	0.02
2.389	0.0	0.03	1.0	-0.03	-0.02	0.04
2.404	0.0	0.03	1.0	-0.03	-0.02	0.04
2.406	0.0	0.03	1.0	-0.04	0.0	0.03
2.407	0.0	0.03	1.01	-0.04	0.0	0.03
2.407	0.0	0.03	1.01	-0.04	0.0	0.05
2.414	0.0	0.03	1.01	-0.04	0.0	0.05
2.415	0.0	0.03	1.01	-0.02	0.0	0.07
2.425	0.0	0.03	1.01	-0.02	0.0	0.07
2.427	0.0	0.03	1.01	-0.03	0.02	0.08
2.434	0.0	0.03	1.01	-0.03	0.02	0.08
2.435	0.0	0.03	1.01	-0.03	0.04	0.07
2.445	0.0	0.03	1.0	-0.03	0.04	0.07
2.447	0.0	0.03	1.0	-0.03	0.05	0.04
2.454	0.0	0.03	1.0	-0.03	0.05	0.04
2.455	0.0	0.03	1.0	-0.03	0.03	0.02
2.464	0.0	0.03	1.0	-0.03	0.03	0.02
2.465	0.0	0.03	1.0	-0.01	0.02	0.01
2.486	0.0	0.03	1.0	-0.01	0.02	0.01
2.487	0.0	0.03	1.0	-0.02	0.0	-0.01
2.489	0.0	0.03	1.0	-0.02	0.0	-0.01
2.49	0.0	0.03	1.0	-0.03	-0.02	-0.02
2.495	0.0	0.03	1.0	-0.03	-0.02	-0.02
2.496	0.0	0.03	1.0	-0.04	-0.02	0.02
2.505	0.0	0.03	1.01	-0.04	-0.02	0.02
2.506	0.0	0.03	1.01	-0.02	0.04	0.06
2.514	0.0	0.03	1.0	-0.02	0.04	0.06
2.515	0.0	0.03	1.0	-0.01	0.05	0.04
2.524	0.0	0.04	1.0	-0.01	0.05	0.04
2.526	0.0	0.04	1.0	-0.01	0.08	0.02
2.534	0.0	0.04	1.0	-0.01	0.08	0.02
2.536	0.0	0.04	1.0	-0.02	0.08	0.02
2.544	0.0	0.04	1.0	-0.02	0.08	0.02
2.546	0.0	0.04	1.0	-0.03	0.07	0.05
2.555	0.0	0.03	1.01	-0.03	0.07	0.05
2.557	0.0	0.03	1.01	-0.05	0.05	0.06
2.564	0.0	0.03	1.01	-0.05	0.05	0.06
2.566	0.0	0.03	1.01	-0.06	0.04	0.11
2.586	0.0	0.03	1.01	-0.06	0.04	0.11
2.588	0.0	0.03	1.01	-0.05	0.03	0.13
2.589	0.0	0.03	1.01	-0.05	0.03	0.13
2.59	0.0	0.03	1.01	-0.05	0.05	0.12
2.594	0.0	0.04	1.01	-0.05	0.05	0.12
2.595	0.0	0.04	1.01	-0.03	0.07	0.1
2.604	0.0	0.04	1.01	-0.03	0.07	0.1
2.605	0.0	0.04	1.01	-0.02	0.1	0.13
2.614	0.0	0.04	1.01	-0.02	0.1	0.13
2.615	0.0	0.04	1.01	-0.04	0.09	0.07
2.624	0.0	0.04	1.01	-0.04	0.09	0.07
2.626	0.0	0.04	1.01	-0.04	0.06	0.11
2.634	0.0	0.03	1.01	-0.04	0.06	0.11
2.635	0.0	0.03	1.01	-0.03	0.05	0.12
2.644	0.0	0.04	1.01	-0.03	0.05	0.12
2.646	0.0	0.04	1.01	-0.05	0.07	0.08
2.654	0.0	0.03	1.01	-0.05	0.07	0.08
2.656	0.0	0.03	1.01	-0.05	0.05	0.13
2.664	0.0	0.04	1.01	-0.05	0.05	0.13
2.665	0.0	0.04	1.01	-0.05	0.06	0.1
2.685	0.0	0.03	1.01	-0.05	0.06	0.1
2.687	0.0	0.03	1.01	-0.05	0.05	0.12
2.692	0.0	0.03	1.02	-0.05	0.05	0.12
2.693	0.0	0.03	1.02	-0.04	0.02	0.16
2.695	0.0	0.02	1.02	-0.04	0.02	0.16
2.696	0.0	0.02	1.02	-0.06	-0.03	0.2
2.704	0.0	0.02	1.02	-0.06	-0.03	0.2
2.709	0.0	0.02	1.02	-0.07	-0.04	0.2
2.714	0.0	0.02	1.02	-0.07	-0.04	0.2
2.715	0.0	0.02	1.02	-0.07	-0.03	0.18
2.724	-0.01	0.03	1.02	-0.07	-0.03	0.18
2.726	-0.01	0.03	1.02	-0.09	0.01	0.17
2.734	0.0	0.03	1.01	-0.09	0.01	0.17
2.735	0.0	0.03	1.01	-0.06	0.04	0.13
2.744	-0.02	0.07	0.99	-0.06	0.04	0.13
2.745	-0.02	0.07	0.99	-0.21	0.41	-0.11
2.758	0.03	0.07	1.01	-0.21	0.41	-0.11
2.76	0.03	0.07	1.01	0.24	0.47	0.06
2.764	-0.01	0.03	1.03	0.24	0.47	0.06
2.765	-0.01	0.03	1.03	-0.1	0.02	0.28
2.775	-0.01	0.0	1.05	-0.1	0.02	0.28
2.776	-0.01	0.0	1.05	-0.09	-0.2	0.44
2.784	-0.02	0.03	1.01	-0.09	-0.2	0.44
2.785	-0.02	0.03	1.01	-0.13	0.08	0.11
2.8	-0.01	0.05	1.01	-0.13	0.08	0.11
2.802	-0.01	0.05	1.01	-0.07	0.28	0.05
2.806	-0.01	0.05	1.01	-0.07	0.28	0.05
2.808	-0.01	0.05	1.01	-0.05	0.33	0.06
2.818	-0.02	0.05	1.0	-0.05	0.33	0.06
2.819	-0.02	0.05	1.0	-0.13	0.28	0.01
2.828	-0.02	0.04	0.99	-0.13	0.28	0.01
2.829	-0.02	0.04	0.99	-0.12	0.19	-0.08
2.835	-0.04	0.02	1.0	-0.12	0.19	-0.08
2.836	-0.04	0.02	1.0	-0.25	0.06	-0.05
2.844	-0.03	0.05	0.97	-0.25	0.06	-0.05
2.845	-0.03	0.05	0.97	-0.2	0.28	-0.29
2.854	-0.02	0.03	0.97	-0.2	0.28	-0.29
2.858	-0.02	0.03	0.97	-0.07	0.16	-0.3
2.864	-0.03	0.02	0.98	-0.07	0.16	-0.3
2.865	-0.03	0.02	0.98	-0.1	0.1	-0.16
2.886	-0.02	0.03	1.0	-0.1	0.1	-0.16
2.889	-0.02	0.03	1.0	-0.05	0.18	-0.04
2.89	-0.03	0.04	1.0	-0.05	0.18	-0.04
2.892	-0.03	0.04	1.0	-0.08	0.22	0.04
2.895	-0.03	0.04	1.0	-0.08	0.22	0.04
2.896	-0.03	0.04	1.0	-0.1	0.24	-0.02
2.905	-0.03	0.02	1.0	-0.1	0.24	-0.02
2.906	-0.03	0.02	1.0	-0.09	0.06	-0.01
2.914	-0.04	0.03	1.05	-0.09	0.06	-0.01
2.916	-0.04	0.03	1.05	-0.18	0.2	0.45
2.924	-0.04	0.03	1.02	-0.18	0.2	0.45
2.926	-0.04	0.03	1.02	-0.2	0.23	0.24
2.934	-0.05	0.04	1.01	-0.2	0.23	0.24
2.935	-0.05	0.04	1.01	-0.29	0.32	0.11
2.944	-0.05	0.04	0.99	-0.29	0.32	0.11
2.945	-0.05	0.04	0.99	-0.2	0.36	-0.14
2.956	-0.03	0.04	0.97	-0.2	0.36	-0.14
2.958	-0.03	0.04	0.97	-0.06	0.33	-0.31
2.964	-0.03	0.03	0.97	-0.06	0.33	-0.31
2.965	-0.03	0.03	0.97	0.0	0.29	-0.25
2.975	-0.03	0.03	0.98	0.0	0.29	-0.25
2.976	-0.03	0.03	0.98	0.0	0.29	-0.16
2.984	-0.03	0.03	0.99	0.0	0.29	-0.16
2.985	-0.03	0.03	0.99	-0.05	0.27	-0.11
2.999	-0.04	0.03	1.0	-0.05	0.27	-0.11
3.001	-0.04	0.03	1.0	-0.06	0.25	-0.03
3.014	-0.03	0.03	1.0	-0.06	0.25	-0.03
3.015	-0.03	0.03	1.0	0.02	0.2	0.0
3.017	-0.04	0.03	0.99	0.02	0.2	0.0
3.018	-0.04	0.03	0.99	-0.05	0.22	-0.14
3.024	-0.03	0.03	0.99	-0.05	0.22	-0.14
3.025	-0.03	0.03	0.99	-0.01	0.27	-0.12
3.034	-0.03	0.04	1.0	-0.01	0.27	-0.12
3.035	-0.03	0.04	1.0	-0.01	0.28	-0.04
3.044	-0.04	0.02	1.0	-0.01	0.28	-0.04
3.045	-0.04	0.02	1.0	-0.04	0.16	0.05
3.059	-0.04	0.02	1.01	-0.04	0.16	0.05
3.06	-0.04	0.02	1.01	-0.03	0.15	0.14
3.063	-0.03	0.03	1.01	-0.03	0.15	0.14
3.065	-0.03	0.03	1.01	0.0	0.24	0.06
3.075	-0.03	0.04	0.99	0.0	0.24	0.06
3.076	-0.03	0.04	0.99	0.08	0.32	-0.08
3.084	-0.03	0.04	0.99	0.08	0.32	-0.08
3.085	-0.03	0.04	0.99	0.06	0.29	-0.12
3.107	-0.02	0.02	0.99	0.06	0.29	-0.12
3.11	-0.02	0.02	0.99	0.08	0.04	-0.13
3.111	-0.02	0.02	0.98	0.08	0.04	-0.13
3.113	-0.02	0.02	0.98	0.14	0.11	-0.16
3.114	-0.02	0.02	0.98	0.14	0.11	-0.16
3.116	-0.02	0.02	0.98	0.1	0.06	-0.16
3.125	-0.02	0.01	0.98	0.1	0.06	-0.16
3.126	-0.02	0.01	0.98	0.08	-0.03	-0.17
3.134	-0.02	-0.01	0.98	0.08	-0.03	-0.17
3.135	-0.02	-0.01	0.98	0.07	-0.17	-0.17
3.151	-0.02	-0.02	0.99	0.07	-0.17	-0.17
3.153	-0.02	-0.02	0.99	0.08	-0.27	-0.15
3.155	-0.01	-0.03	0.99	0.08	-0.27	-0.15
3.156	-0.01	-0.03	0.99	0.19	-0.41	-0.07
3.17	-0.01	-0.05	1.0	0.19	-0.41	-0.07
3.171	-0.01	-0.05	1.0	0.18	-0.51	-0.05
3.187	-0.01	-0.06	1.0	0.18	-0.51	-0.05
3.188	-0.01	-0.06	1.0	0.13	-0.62	0.0
3.189	-0.02	-0.07	1.01	0.13	-0.62	0.0
3.19	-0.02	-0.07	1.01	0.09	-0.68	0.08
3.204	-0.02	-0.07	1.02	0.09	-0.68	0.08
3.205	-0.02	-0.07	1.02	0.06	-0.71	0.15
3.206	-0.02	-0.07	1.02	0.06	-0.71	0.15
3.206	-0.02	-0.07	1.02	0.07	-0.71	0.2
3.214	-0.02	-0.09	1.01	0.07	-0.71	0.2
3.215	-0.02	-0.09	1.01	0.06	-0.79	0.14
3.231	-0.01	-0.1	1.01	0.06	-0.79	0.14
3.231	-0.01	-0.1	1.01	0.1	-0.9	0.08
3.234	-0.01	-0.11	1.0	0.1	-0.9	0.08
3.235	-0.01	-0.11	1.0	0.11	-0.96	-0.04
3.25	-0.02	-0.11	0.99	0.11	-0.96	-0.04
3.251	-0.02	-0.11	0.99	0.06	-0.98	-0.15
3.268	-0.03	-0.11	0.98	0.06	-0.98	-0.15
3.27	-0.03	-0.11	0.98	-0.04	-0.94	-0.22
3.271	-0.05	-0.11	0.97	-0.04	-0.94	-0.22
3.272	-0.05	-0.11	0.97	-0.28	-0.88	-0.29
3.288	-0.08	-0.07	0.97	-0.28	-0.88	-0.29
3.289	-0.08	-0.07	0.97	-0.54	-0.52	-0.27
3.291	-0.06	-0.1	0.98	-0.54	-0.52	-0.27
3.292	-0.06	-0.1	0.98	-0.35	-0.84	-0.18
3.306	-0.08	-0.12	1.02	-0.35	-0.84	-0.18
3.309	-0.08	-0.12	1.02	-0.64	-1.02	0.15
3.31	-0.1	-0.12	1.03	-0.64	-1.02	0.15
3.311	-0.1	-0.12	1.03	-0.81	-0.97	0.31
3.318	-0.1	-0.11	1.03	-0.81	-0.97	0.31
3.321	-0.1	-0.11	1.03	-0.78	-0.82	0.3
3.332	-0.09	-0.1	1.04	-0.78	-0.82	0.3
3.334	-0.09	-0.1	1.04	-0.75	-0.7	0.35
3.335	-0.09	-0.09	1.05	-0.75	-0.7	0.35
3.336	-0.09	-0.09	1.05	-0.7	-0.65	0.47
3.35	-0.08	-0.1	1.05	-0.7	-0.65	0.47
3.351	-0.08	-0.1	1.05	-0.64	-0.67	0.52
3.366	-0.08	-0.1	1.06	-0.64	-0.67	0.52
3.367	-0.08	-0.1	1.06	-0.6	-0.65	0.54
3.368	-0.08	-0.1	1.05	-0.6	-0.65	0.54
3.369	-0.08	-0.1	1.05	-0.59	-0.65	0.53
3.383	-0.09	-0.1	1.05	-0.59	-0.65	0.53
3.385	-0.09	-0.1	1.05	-0.64	-0.67	0.45
3.387	-0.1	-0.12	1.03	-0.64	-0.67	0.45
3.388	-0.1	-0.12	1.03	-0.74	-0.75	0.33
3.404	-0.11	-0.13	1.01	-0.74	-0.75	0.33
3.405	-0.11	-0.13	1.01	-0.81	-0.84	0.15
3.407	-0.11	-0.14	0.99	-0.81	-0.84	0.15
3.408	-0.11	-0.14	0.99	-0.86	-0.91	-0.08
3.414	-0.11	-0.14	0.97	-0.86	-0.91	-0.08
3.415	-0.11	-0.14	0.97	-0.82	-0.94	-0.27
3.424	-0.1	-0.14	0.96	-0.82	-0.94	-0.27
3.425	-0.1	-0.14	0.96	-0.77	-0.92	-0.43
3.433	-0.1	-0.14	0.94	-0.77	-0.92	-0.43
3.434	-0.1	-0.14	0.94	-0.73	-0.84	-0.61
3.444	-0.1	-0.13	0.92	-0.73	-0.84	-0.61
3.446	-0.1	-0.13	0.92	-0.71	-0.74	-0.75
3.455	-0.09	-0.12	0.91	-0.71	-0.74	-0.75
3.457	-0.09	-0.12	0.91	-0.63	-0.59	-0.85
3.464	-0.09	-0.11	0.91	-0.63	-0.59	-0.85
3.465	-0.09	-0.11	0.91	-0.6	-0.53	-0.84
3.474	-0.08	-0.1	0.91	-0.6	-0.53	-0.84
3.475	-0.08	-0.1	0.91	-0.56	-0.42	-0.83
3.484	-0.08	-0.09	0.92	-0.56	-0.42	-0.83
3.485	-0.08	-0.09	0.92	-0.51	-0.28	-0.8
3.504	-0.08	-0.08	0.93	-0.51	-0.28	-0.8
3.505	-0.08	-0.08	0.93	-0.51	-0.21	-0.67
3.506	-0.08	-0.08	0.95	-0.51	-0.21	-0.67
3.507	-0.08	-0.08	0.95	-0.56	-0.16	-0.49
3.514	-0.09	-0.08	0.96	-0.56	-0.16	-0.49
3.516	-0.09	-0.08	0.96	-0.61	-0.14	-0.37
3.524	-0.09	-0.08	0.97	-0.61	-0.14	-0.37
3.526	-0.09	-0.08	0.97	-0.7	-0.17	-0.24
3.534	-0.1	-0.09	0.99	-0.7	-0.17	-0.24
3.535	-0.1	-0.09	0.99	-0.75	-0.21	-0.12
3.544	-0.1	-0.09	1.0	-0.75	-0.21	-0.12
3.546	-0.1	-0.09	1.0	-0.79	-0.23	0.0
3.555	-0.1	-0.1	1.01	-0.79	-0.23	0.0
3.557	-0.1	-0.1	1.01	-0.8	-0.27	0.07
3.564	-0.1	-0.1	1.01	-0.8	-0.27	0.07
3.565	-0.1	-0.1	1.01	-0.78	-0.34	0.1
3.574	-0.1	-0.11	1.01	-0.78	-0.34	0.1
3.575	-0.1	-0.11	1.01	-0.74	-0.38	0.08
3.584	-0.09	-0.12	1.0	-0.74	-0.38	0.08
3.585	-0.09	-0.12	1.0	-0.7	-0.43	0.06
3.599	-0.1	-0.12	0.99	-0.7	-0.43	0.06
3.601	-0.1	-0.12	0.99	-0.74	-0.43	-0.12
3.614	-0.11	-0.12	0.98	-0.74	-0.43	-0.12
3.615	-0.11	-0.12	0.98	-0.79	-0.5	-0.2
3.616	-0.11	-0.13	0.98	-0.79	-0.5	-0.2
3.617	-0.11	-0.13	0.98	-0.84	-0.57	-0.22
3.624	-0.12	-0.14	0.98	-0.84	-0.57	-0.22
3.626	-0.12	-0.14	0.98	-0.88	-0.66	-0.19
3.633	-0.12	-0.15	0.99	-0.88	-0.66	-0.19
3.634	-0.12	-0.15	0.99	-0.94	-0.78	-0.11
3.644	-0.13	-0.16	1.0	-0.94	-0.78	-0.11
3.645	-0.13	-0.16	1.0	-1.01	-0.93	-0.01
3.655	-0.13	-0.18	1.01	-1.01	-0.93	-0.01
3.657	-0.13	-0.18	1.01	-1.04	-1.06	0.12
3.664	-0.13	-0.19	1.01	-1.04	-1.06	0.12
3.665	-0.13	-0.19	1.01	-1.02	-1.17	0.15
3.674	-0.13	-0.2	1.01	-1.02	-1.17	0.15
3.675	-0.13	-0.2	1.01	-1.05	-1.27	0.14
3.684	-0.14	-0.21	1.02	-1.05	-1.27	0.14
3.685	-0.14	-0.21	1.02	-1.13	-1.38	0.19
3.698	-0.14	-0.21	1.02	-1.13	-1.38	0.19
3.7	-0.14	-0.21	1.02	-1.16	-1.41	0.25
3.714	-0.14	-0.2	1.03	-1.16	-1.41	0.25
3.716	-0.14	-0.2	1.03	-1.08	-1.33	0.33
3.717	-0.14	-0.2	1.04	-1.08	-1.33	0.33
3.718	-0.14	-0.2	1.04	-1.12	-1.32	0.46
3.724	-0.15	-0.19	1.06	-1.12	-1.32	0.46
3.725	-0.15	-0.19	1.06	-1.2	-1.26	0.58
3.734	-0.16	-0.19	1.07	-1.2	-1.26	0.58
3.735	-0.16	-0.19	1.07	-1.26	-1.2	0.68
3.744	-0.17	-0.18	1.07	-1.26	-1.2	0.68
3.745	-0.17	-0.18	1.07	-1.33	-1.2	0.74
3.755	-0.18	-0.18	1.07	-1.33	-1.2	0.74
3.756	-0.18	-0.18	1.07	-1.42	-1.21	0.69
3.764	-0.19	-0.19	1.05	-1.42	-1.21	0.69
3.765	-0.19	-0.19	1.05	-1.52	-1.25	0.52
3.774	-0.2	-0.2	1.03	-1.52	-1.25	0.52
3.775	-0.2	-0.2	1.03	-1.6	-1.38	0.28
3.783	-0.21	-0.22	1.0	-1.6	-1.38	0.28
3.784	-0.21	-0.22	1.0	-1.67	-1.62	0.03
3.796	-0.22	-0.24	0.97	-1.67	-1.62	0.03
3.798	-0.22	-0.24	0.97	-1.72	-1.87	-0.26
3.813	-0.21	-0.26	0.97	-1.72	-1.87	-0.26
3.815	-0.21	-0.26	0.97	-1.68	-2.1	-0.25
3.816	-0.22	-0.26	0.99	-1.68	-2.1	-0.25
3.817	-0.22	-0.26	0.99	-1.68	-2.08	-0.12
3.824	-0.21	-0.25	1.02	-1.68	-2.08	-0.12
3.825	-0.21	-0.25	1.02	-1.6	-2.06	0.2
3.834	-0.18	-0.27	1.08	-1.6	-2.06	0.2
3.835	-0.18	-0.27	1.08	-1.37	-2.24	0.79
3.844	-0.13	-0.3	1.14	-1.37	-2.24	0.79
3.846	-0.13	-0.3	1.14	-0.84	-2.6	1.39
3.854	-0.06	-0.33	1.16	-0.84	-2.6	1.39
3.856	-0.06	-0.33	1.16	-0.09	-2.91	1.58
3.864	-0.01	-0.33	1.13	-0.09	-2.91	1.58
3.865	-0.01	-0.33	1.13	0.39	-2.95	1.26
3.874	-0.02	-0.3	1.09	0.39	-2.95	1.26
3.875	-0.02	-0.3	1.09	0.33	-2.66	0.93
3.887	-0.09	-0.28	1.11	0.33	-2.66	0.93
3.888	-0.09	-0.28	1.11	-0.38	-2.51	1.1
3.908	-0.18	-0.3	1.18	-0.38	-2.51	1.1
3.91	-0.18	-0.3	1.18	-1.25	-2.69	1.76
3.911	-0.24	-0.32	1.25	-1.25	-2.69	1.76
3.912	-0.24	-0.32	1.25	-1.79	-2.94	2.49
3.914	-0.21	-0.31	1.3	-1.79	-2.94	2.49
3.915	-0.21	-0.31	1.3	-1.52	-2.83	2.91
3.926	-0.15	-0.27	1.3	-1.52	-2.83	2.91
3.928	-0.15	-0.27	1.3	-0.82	-2.42	3.0
3.934	-0.02	-0.16	1.17	-0.82	-2.42	3.0
3.935	-0.02	-0.16	1.17	0.46	-1.38	1.69
3.944	0.06	-0.09	1.13	0.46	-1.38	1.69
3.946	0.06	-0.09	1.13	1.29	-0.73	1.25
3.955	0.11	-0.02	1.07	1.29	-0.73	1.25
3.956	0.11	-0.02	1.07	1.89	-0.02	0.68
3.964	0.12	0.03	1.05	1.89	-0.02	0.68
3.965	0.12	0.03	1.05	2.06	0.4	0.51
3.974	0.12	0.05	1.05	2.06	0.4	0.51
3.975	0.12	0.05	1.05	2.0	0.55	0.47
3.986	0.11	0.06	1.03	2.0	0.55	0.47
3.987	0.11	0.06	1.03	1.93	0.62	0.29
4.006	0.11	0.06	0.99	1.93	0.62	0.29
4.007	0.11	0.06	0.99	1.98	0.63	-0.05
4.008	0.13	0.07	0.95	1.98	0.63	-0.05
4.009	0.13	0.07	0.95	2.19	0.65	-0.46
4.014	0.15	0.07	0.89	2.19	0.65	-0.46
4.016	0.15	0.07	0.89	2.38	0.61	-1.07
4.024	0.16	0.06	0.83	2.38	0.61	-1.07
4.026	0.16	0.06	0.83	2.53	0.46	-1.59
4.034	0.17	0.04	0.8	2.53	0.46	-1.59
4.035	0.17	0.04	0.8	2.6	0.21	-1.92
4.045	0.16	-0.01	0.8	2.6	0.21	-1.92
4.046	0.16	-0.01	0.8	2.52	-0.25	-1.93
4.057	0.14	-0.07	0.84	2.52	-0.25	-1.93
4.058	0.14	-0.07	0.84	2.33	-0.86	-1.57
4.064	0.12	-0.13	0.9	2.33	-0.86	-1.57
4.065	0.12	-0.13	0.9	2.1	-1.53	-0.97
4.081	0.09	-0.2	0.97	2.1	-1.53	-0.97
4.083	0.09	-0.2	0.97	1.79	-2.19	-0.27
4.086	0.05	-0.25	1.04	1.79	-2.19	-0.27
4.087	0.05	-0.25	1.04	1.47	-2.73	0.45
4.098	0.05	-0.26	1.08	1.47	-2.73	0.45
4.1	0.05	-0.26	1.08	1.38	-2.81	0.82
4.108	0.05	-0.31	1.13	1.38	-2.81	0.82
4.111	0.05	-0.31	1.13	1.43	-3.31	1.29
4.114	0.04	-0.31	1.13	1.43	-3.31	1.29
4.116	0.04	-0.31	1.13	1.35	-3.3	1.33
4.124	0.05	-0.27	1.1	1.35	-3.3	1.33
4.129	0.05	-0.27	1.1	1.47	-2.88	1.01
4.133	0.07	-0.2	1.06	1.47	-2.88	1.01
4.135	0.07	-0.2	1.06	1.64	-2.27	0.62
4.144	0.08	-0.14	1.02	1.64	-2.27	0.62
4.146	0.08	-0.14	1.02	1.79	-1.68	0.22
4.156	0.09	-0.08	0.97	1.79	-1.68	0.22
4.158	0.09	-0.08	0.97	1.93	-1.1	-0.23
4.164	0.11	-0.03	0.93	1.93	-1.1	-0.23
4.165	0.11	-0.03	0.93	2.1	-0.62	-0.67
4.174	0.12	0.0	0.89	2.1	-0.62	-0.67
4.174	0.12	0.0	0.89	2.24	-0.33	-0.98
4.183	0.13	0.02	0.86	2.24	-0.33	-0.98
4.185	0.13	0.02	0.86	2.38	-0.12	-1.32
4.198	0.14	0.03	0.86	2.38	-0.12	-1.32
4.2	0.14	0.03	0.86	2.53	-0.08	-1.34
4.212	0.16	0.03	0.86	2.53	-0.08	-1.34
4.215	0.16	0.03	0.86	2.66	-0.07	-1.27
4.216	0.17	0.03	0.87	2.66	-0.07	-1.27
4.217	0.17	0.03	0.87	2.76	-0.06	-1.19
4.223	0.17	0.03	0.9	2.76	-0.06	-1.19
4.225	0.17	0.03	0.9	2.79	-0.05	-0.93
4.235	0.16	0.03	0.93	2.79	-0.05	-0.93
4.235	0.16	0.03	0.93	2.7	-0.06	-0.63
4.244	0.15	0.04	0.96	2.7	-0.06	-0.63
4.245	0.15	0.04	0.96	2.58	-0.04	-0.38
4.256	0.13	0.04	0.98	2.58	-0.04	-0.38
4.257	0.13	0.04	0.98	2.36	-0.03	-0.13
4.264	0.11	0.04	1.0	2.36	-0.03	-0.13
4.265	0.11	0.04	1.0	2.15	-0.06	0.09
4.277	0.09	0.03	1.02	2.15	-0.06	0.09
4.279	0.09	0.03	1.02	1.94	-0.11	0.3
4.284	0.08	0.03	1.03	1.94	-0.11	0.3
4.285	0.08	0.03	1.03	1.75	-0.17	0.39
4.293	0.06	0.03	1.04	1.75	-0.17	0.39
4.295	0.06	0.03	1.04	1.6	-0.18	0.48
4.304	0.05	0.04	1.05	1.6	-0.18	0.48
4.306	0.05	0.04	1.05	1.5	-0.1	0.54
4.314	0.05	0.05	1.05	1.5	-0.1	0.54
4.314	0.05	0.05	1.05	1.43	0.03	0.57
4.324	0.05	0.06	1.05	1.43	0.03	0.57
4.326	0.05	0.06	1.05	1.39	0.11	0.52
4.333	0.04	0.07	1.05	1.39	0.11	0.52
4.336	0.04	0.07	1.05	1.32	0.18	0.55
4.344	0.03	0.07	1.05	1.32	0.18	0.55
4.345	0.03	0.07	1.05	1.27	0.2	0.52
4.354	0.03	0.07	1.05	1.27	0.2	0.52
4.355	0.03	0.07	1.05	0.89	0.17	0.48
4.364	0.02	0.07	1.04	0.89	0.17	0.48
4.365	0.02	0.07	1.04	0.58	0.11	0.45
4.378	0.02	0.06	1.04	0.58	0.11	0.45
4.379	0.02	0.06	1.04	0.34	0.05	0.36
4.384	0.01	0.05	1.03	0.34	0.05	0.36
4.385	0.01	0.05	1.03	0.29	-0.07	0.27
4.394	0.01	0.02	1.01	0.29	-0.07	0.27
4.396	0.01	0.02	1.01	0.27	-0.3	0.12
4.405	0.01	-0.01	1.0	0.27	-0.3	0.12
4.406	0.01	-0.01	1.0	0.27	-0.57	0.01
4.414	0.02	-0.05	0.98	0.27	-0.57	0.01
4.414	0.02	-0.05	0.98	0.33	-0.9	-0.22
4.424	0.02	-0.08	0.95	0.33	-0.9	-0.22
4.426	0.02	-0.08	0.95	0.36	-1.26	-0.44
4.434	0.03	-0.12	0.94	0.36	-1.26	-0.44
4.435	0.03	-0.12	0.94	0.45	-1.54	-0.58
4.444	0.04	-0.14	0.92	0.45	-1.54	-0.58
4.445	0.04	-0.14	0.92	0.51	-1.77	-0.78
4.455	0.06	-0.16	0.92	0.51	-1.77	-0.78
4.457	0.06	-0.16	0.92	0.73	-1.87	-0.76
4.463	0.06	-0.13	0.93	0.73	-1.87	-0.76
4.465	0.06	-0.13	0.93	0.69	-1.57	-0.64
4.477	0.05	-0.09	0.95	0.69	-1.57	-0.64
4.479	0.05	-0.09	0.95	0.6	-1.14	-0.51
4.484	0.05	-0.04	0.96	0.6	-1.14	-0.51
4.486	0.05	-0.04	0.96	0.57	-0.64	-0.43
4.494	0.05	0.0	0.97	0.57	-0.64	-0.43
4.495	0.05	0.0	0.97	0.58	-0.21	-0.33
4.504	0.06	0.04	0.95	0.58	-0.21	-0.33
4.505	0.06	0.04	0.95	0.65	0.17	-0.46
4.514	0.08	0.06	0.94	0.65	0.17	-0.46
4.515	0.08	0.06	0.94	0.83	0.45	-0.56
4.524	0.1	0.09	0.91	0.83	0.45	-0.56
4.525	0.1	0.09	0.91	0.97	0.7	-0.93
4.534	0.13	0.1	0.91	0.97	0.7	-0.93
4.535	0.13	0.1	0.91	1.27	0.9	-0.87
4.544	0.14	0.12	0.9	1.27	0.9	-0.87
4.545	0.14	0.12	0.9	1.36	1.11	-1.01
4.554	0.13	0.12	0.92	1.36	1.11	-1.01
4.555	0.13	0.12	0.92	1.24	1.17	-0.79
4.564	0.1	0.12	0.94	1.24	1.17	-0.79
4.565	0.1	0.12	0.94	0.91	1.15	-0.62
4.58	0.06	0.11	1.0	0.91	1.15	-0.62
4.582	0.06	0.11	1.0	0.5	1.14	0.03
4.595	0.04	0.12	1.05	0.5	1.14	0.03
4.597	0.04	0.12	1.05	0.25	1.22	0.52
4.605	0.05	0.12	1.14	0.25	1.22	0.52
4.607	0.05	0.12	1.14	0.31	1.32	1.38
4.614	0.09	0.13	1.14	0.31	1.32	1.38
4.615	0.09	0.13	1.14	0.66	1.5	1.38
4.624	0.13	0.15	1.12	0.66	1.5	1.38
4.626	0.13	0.15	1.12	1.1	1.73	1.18
4.635	0.18	0.18	1.1	1.1	1.73	1.18
4.636	0.18	0.18	1.1	1.57	2.1	0.98
4.644	0.22	0.22	1.08	1.57	2.1	0.98
4.646	0.22	0.22	1.08	1.98	2.51	0.77
4.655	0.25	0.25	1.06	1.98	2.51	0.77
4.657	0.25	0.25	1.06	2.22	2.87	0.59
4.664	0.24	0.27	1.06	2.22	2.87	0.59
4.665	0.24	0.27	1.06	2.2	3.03	0.6
4.684	0.21	0.24	1.07	2.2	3.03	0.6
4.686	0.21	0.24	1.07	1.87	2.77	0.69
4.687	0.15	0.16	1.08	1.87	2.77	0.69
4.689	0.15	0.16	1.08	1.25	2.02	0.83
4.694	0.08	0.05	1.08	1.25	2.02	0.83
4.696	0.08	0.05	1.08	0.5	0.95	0.8
4.704	0.02	-0.07	1.07	0.5	0.95	0.8
4.707	0.02	-0.07	1.07	-0.1	-0.22	0.68
4.714	-0.01	-0.19	1.05	-0.1	-0.22	0.68
4.715	-0.01	-0.19	1.05	-0.42	-1.42	0.49
4.724	-0.01	-0.31	1.03	-0.42	-1.42	0.49
4.726	-0.01	-0.31	1.03	-0.49	-2.53	0.31
4.734	-0.01	-0.41	1.01	-0.49	-2.53	0.31
4.735	-0.01	-0.41	1.01	-0.44	-3.52	0.14
4.744	-0.02	-0.42	0.98	-0.44	-3.52	0.14
4.746	-0.02	-0.42	0.98	-0.6	-3.57	-0.14
4.755	0.08	-0.51	0.96	-0.6	-3.57	-0.14
4.756	0.08	-0.51	0.96	0.44	-4.42	-0.4
4.764	0.1	-0.56	0.97	0.44	-4.42	-0.4
4.765	0.1	-0.56	0.97	0.56	-4.81	-0.26
4.779	0.12	-0.56	0.97	0.56	-4.81	-0.26
4.78	0.12	-0.56	0.97	0.78	-4.72	-0.3
4.795	0.14	-0.52	0.95	0.78	-4.72	-0.3
4.797	0.14	-0.52	0.95	0.95	-4.28	-0.47
4.807	0.17	-0.34	0.9	0.95	-4.28	-0.47
4.809	0.17	-0.34	0.9	1.3	-2.45	-0.9
4.814	0.2	-0.27	0.91	1.3	-2.45	-0.9
4.815	0.2	-0.27	0.91	1.58	-1.71	-0.86
4.824	0.22	-0.21	0.94	1.58	-1.71	-0.86
4.826	0.22	-0.21	0.94	1.77	-1.14	-0.55
4.834	0.19	-0.16	0.97	1.77	-1.14	-0.55
4.835	0.19	-0.16	0.97	1.44	-0.64	-0.23
4.844	0.19	-0.12	1.02	1.44	-0.64	-0.23
4.846	0.19	-0.12	1.02	1.47	-0.21	0.27
4.854	0.17	-0.08	1.06	1.47	-0.21	0.27
4.855	0.17	-0.08	1.06	1.35	0.18	0.66
4.864	0.15	-0.08	1.09	1.35	0.18	0.66
4.865	0.15	-0.08	1.09	1.12	0.31	0.92
4.879	0.12	-0.08	1.12	1.12	0.31	0.92
4.88	0.12	-0.08	1.12	0.82	0.27	1.23
4.893	0.09	-0.12	1.11	0.82	0.27	1.23
4.895	0.09	-0.12	1.11	0.58	0.0	1.18
4.896	0.07	-0.16	1.11	0.58	0.0	1.18
4.897	0.07	-0.16	1.11	0.37	-0.45	1.13
4.904	0.06	-0.2	1.09	0.37	-0.45	1.13
4.905	0.06	-0.2	1.09	0.38	-0.84	0.9
4.914	0.09	-0.24	1.04	0.38	-0.84	0.9
4.915	0.09	-0.24	1.04	0.65	-1.14	0.47
4.924	0.13	-0.26	0.98	0.65	-1.14	0.47
4.926	0.13	-0.26	0.98	1.06	-1.34	-0.11
4.936	0.16	-0.27	0.93	1.06	-1.34	-0.11
4.937	0.16	-0.27	0.93	1.52	-1.49	-0.61
4.944	0.19	-0.29	0.9	1.52	-1.49	-0.61
4.945	0.19	-0.29	0.9	1.77	-1.67	-0.96
4.954	0.21	-0.3	0.88	1.77	-1.67	-0.96
4.956	0.21	-0.3	0.88	2.08	-1.77	-1.12
4.964	0.23	-0.3	0.89	2.08	-1.77	-1.12
4.965	0.23	-0.3	0.89	2.29	-1.76	-1.03
4.974	0.24	-0.29	0.91	2.29	-1.76	-1.03
4.975	0.24	-0.29	0.91	2.45	-1.64	-0.85
4.998	0.25	-0.26	0.93	2.45	-1.64	-0.85
5.0	0.25	-0.26	0.93	2.55	-1.36	-0.62
5.001	0.25	-0.23	0.97	2.55	-1.36	-0.62
5.002	0.25	-0.23	0.97	2.68	-1.11	-0.19
5.004	0.26	-0.2	1.01	2.68	-1.11	-0.19
5.005	0.26	-0.2	1.01	2.82	-0.82	0.14
5.014	0.28	-0.18	1.04	2.82	-0.82	0.14
5.015	0.28	-0.18	1.04	3.01	-0.57	0.51
5.024	0.29	-0.15	1.06	3.01	-0.57	0.51
5.026	0.29	-0.15	1.06	3.15	-0.3	0.69
5.036	0.29	-0.12	1.09	3.15	-0.3	0.69
5.037	0.29	-0.12	1.09	3.27	-0.04	0.93
5.044	0.3	-0.1	1.09	3.27	-0.04	0.93
5.045	0.3	-0.1	1.09	3.38	0.23	0.98
5.054	0.31	-0.08	1.08	3.38	0.23	0.98
5.056	0.31	-0.08	1.08	3.51	0.42	0.88
5.064	0.32	-0.07	1.05	3.51	0.42	0.88
5.065	0.32	-0.07	1.05	3.68	0.48	0.58
5.082	0.33	-0.07	0.98	3.68	0.48	0.58
5.085	0.33	-0.07	0.98	3.89	0.47	-0.08
5.087	0.34	-0.09	0.96	3.89	0.47	-0.08
5.088	0.34	-0.09	0.96	4.04	0.29	-0.35
5.094	0.34	-0.09	0.94	4.04	0.29	-0.35
5.096	0.34	-0.09	0.94	4.05	0.23	-0.47
5.105	0.33	-0.1	0.94	4.05	0.23	-0.47
5.107	0.33	-0.1	0.94	4.03	0.18	-0.52
5.114	0.33	-0.1	0.94	4.03	0.18	-0.52
5.116	0.33	-0.1	0.94	4.06	0.15	-0.52
5.127	0.34	-0.1	0.94	4.06	0.15	-0.52
5.129	0.34	-0.1	0.94	4.17	0.17	-0.5
5.135	0.36	-0.09	0.95	4.17	0.17	-0.5
5.137	0.36	-0.09	0.95	4.32	0.18	-0.37
5.144	0.37	-0.1	0.94	4.32	0.18	-0.37
5.145	0.37	-0.1	0.94	4.47	0.13	-0.53
5.155	0.38	-0.11	0.95	4.47	0.13	-0.53
5.156	0.38	-0.11	0.95	4.6	-0.01	-0.39
5.163	0.39	-0.12	0.96	4.6	-0.01	-0.39
5.165	0.39	-0.12	0.96	4.69	-0.18	-0.31
5.183	0.38	-0.13	0.99	4.69	-0.18	-0.31
5.185	0.38	-0.13	0.99	4.6	-0.29	0.03
5.186	0.36	-0.14	1.02	4.6	-0.29	0.03
5.187	0.36	-0.14	1.02	4.37	-0.33	0.32
5.194	0.32	-0.14	1.06	4.37	-0.33	0.32
5.195	0.32	-0.14	1.06	4.04	-0.37	0.7
5.204	0.29	-0.11	1.11	4.04	-0.37	0.7
5.206	0.29	-0.11	1.11	3.7	-0.16	1.14
5.214	0.25	-0.1	1.14	3.7	-0.16	1.14
5.215	0.25	-0.1	1.14	3.36	-0.04	1.41
5.224	0.24	-0.06	1.14	3.36	-0.04	1.41
5.225	0.24	-0.06	1.14	3.26	0.26	1.49
5.235	0.24	-0.01	1.15	3.26	0.26	1.49
5.237	0.24	-0.01	1.15	3.22	0.72	1.52
5.244	0.25	0.05	1.13	3.22	0.72	1.52
5.245	0.25	0.05	1.13	3.34	1.35	1.35
5.254	0.26	0.13	1.09	3.34	1.35	1.35
5.256	0.26	0.13	1.09	3.5	2.06	0.95
5.264	0.26	0.21	1.04	3.5	2.06	0.95
5.265	0.26	0.21	1.04	3.5	2.78	0.45
5.282	0.23	0.28	1.0	3.5	2.78	0.45
5.285	0.23	0.28	1.0	3.27	3.45	0.11
5.286	0.18	0.34	1.02	3.27	3.45	0.11
5.287	0.18	0.34	1.02	2.87	3.98	0.27
5.294	0.14	0.37	1.06	2.87	3.98	0.27
5.295	0.14	0.37	1.06	2.44	4.28	0.65
5.304	0.07	0.42	1.07	2.44	4.28	0.65
5.306	0.07	0.42	1.07	1.83	4.7	0.79
5.314	0.06	0.47	1.06	1.83	4.7	0.79
5.315	0.06	0.47	1.06	1.69	5.19	0.68
5.324	0.06	0.5	1.06	1.69	5.19	0.68
5.325	0.06	0.5	1.06	1.75	5.47	0.67
5.334	0.04	0.49	1.03	1.75	5.47	0.67
5.335	0.04	0.49	1.03	1.52	5.4	0.39
5.343	0.01	0.43	0.97	1.52	5.4	0.39
5.344	0.01	0.43	0.97	1.27	4.79	-0.18
5.354	-0.01	0.33	0.9	1.27	4.79	-0.18
5.355	-0.01	0.33	0.9	1.12	3.89	-0.91
5.363	0.01	0.18	0.79	1.12	3.89	-0.91
5.364	0.01	0.18	0.79	1.34	2.38	-2.0
5.373	0.03	-0.01	0.7	1.34	2.38	-2.0
5.374	0.03	-0.01	0.7	1.53	0.59	-2.87
5.394	0.03	-0.18	0.74	1.53	0.59	-2.87
5.395	0.03	-0.18	0.74	1.53	-1.16	-2.47
5.397	0.0	-0.32	0.81	1.53	-1.16	-2.47
5.398	0.0	-0.32	0.81	1.24	-2.46	-1.74
5.409	-0.04	-0.44	0.94	1.24	-2.46	-1.74
5.41	-0.04	-0.44	0.94	0.81	-3.64	-0.49
5.414	-0.07	-0.59	1.1	0.81	-3.64	-0.49
5.415	-0.07	-0.59	1.1	0.45	-5.2	1.02
5.423	-0.14	-0.7	1.23	0.45	-5.2	1.02
5.425	-0.14	-0.7	1.23	-0.23	-6.2	2.29
5.435	-0.18	-0.67	1.31	-0.23	-6.2	2.29
5.437	-0.18	-0.67	1.31	-0.7	-5.94	3.11
5.443	-0.14	-0.51	1.29	-0.7	-5.94	3.11
5.445	-0.14	-0.51	1.29	-0.29	-4.39	2.87
5.454	-0.06	-0.32	1.26	-0.29	-4.39	2.87
5.455	-0.06	-0.32	1.26	0.46	-2.58	2.6
5.464	0.0	-0.14	1.23	0.46	-2.58	2.6
5.465	0.0	-0.14	1.23	1.04	-0.84	2.29
5.474	0.03	0.0	1.19	1.04	-0.84	2.29
5.474	0.03	0.0	1.19	1.4	0.58	1.92
5.497	0.07	0.12	1.15	1.4	0.58	1.92
5.5	0.07	0.12	1.15	1.78	1.71	1.51
5.501	0.1	0.22	1.11	1.78	1.71	1.51
5.507	0.1	0.22	1.11	2.12	2.66	1.2
5.508	0.1	0.3	1.06	2.12	2.66	1.2
5.509	0.1	0.3	1.06	2.25	3.45	0.69
5.521	0.1	0.38	1.01	2.25	3.45	0.69
5.522	0.1	0.38	1.01	2.22	4.2	0.16
5.525	0.08	0.42	0.93	2.22	4.2	0.16
5.526	0.08	0.42	0.93	2.11	4.57	-0.64
5.534	0.1	0.39	0.88	2.11	4.57	-0.64
5.535	0.1	0.39	0.88	2.25	4.27	-1.11
5.544	0.08	0.31	0.85	2.25	4.27	-1.11
5.544	0.08	0.31	0.85	2.08	3.43	-1.36
5.554	0.09	0.24	0.83	2.08	3.43	-1.36
5.556	0.09	0.24	0.83	2.16	2.67	-1.6
5.563	0.06	0.17	0.84	2.16	2.67	-1.6
5.564	0.06	0.17	0.84	1.88	1.92	-1.49
5.574	0.04	0.09	0.89	1.88	1.92	-1.49
5.574	0.04	0.09	0.89	1.67	1.1	-1.02
5.597	0.01	0.02	0.94	1.67	1.1	-1.02
5.598	0.01	0.02	0.94	1.32	0.33	-0.48
5.599	-0.03	-0.04	1.01	1.32	0.33	-0.48
5.6	-0.03	-0.04	1.01	0.96	-0.23	0.17
5.61	-0.06	-0.06	1.06	0.96	-0.23	0.17
5.612	-0.06	-0.06	1.06	0.67	-0.47	0.63
5.614	-0.07	-0.04	1.1	0.67	-0.47	0.63
5.616	-0.07	-0.04	1.1	0.49	-0.35	1.09
5.624	-0.08	-0.01	1.1	0.49	-0.35	1.09
5.626	-0.08	-0.01	1.1	0.44	-0.02	1.07
5.636	-0.07	0.03	1.1	0.44	-0.02	1.07
5.638	-0.07	0.03	1.1	0.54	0.36	1.0
5.644	-0.05	0.07	1.06	0.54	0.36	1.0
5.645	-0.05	0.07	1.06	0.72	0.72	0.66
5.654	-0.04	0.11	1.01	0.72	0.72	0.66
5.655	-0.04	0.11	1.01	0.91	1.09	0.21
5.664	-0.03	0.14	0.97	0.91	1.09	0.21
5.665	-0.03	0.14	0.97	1.04	1.32	-0.18
5.674	-0.02	0.15	0.95	1.04	1.32	-0.18
5.675	-0.02	0.15	0.95	1.1	1.38	-0.43
5.696	-0.02	0.14	0.94	1.1	1.38	-0.43
5.697	-0.02	0.14	0.94	1.14	1.26	-0.55
5.699	-0.02	0.1	0.93	1.14	1.26	-0.55
5.7	-0.02	0.1	0.93	1.11	0.87	-0.55
5.704	-0.02	0.06	0.93	1.11	0.87	-0.55
5.705	-0.02	0.06	0.93	1.12	0.38	-0.59
5.714	-0.02	0.0	0.94	1.12	0.38	-0.59
5.715	-0.02	0.0	0.94	1.11	-0.17	-0.55
5.723	-0.03	-0.05	0.94	1.11	-0.17	-0.55
5.725	-0.03	-0.05	0.94	1.08	-0.73	-0.49
5.733	-0.04	-0.14	0.96	1.08	-0.73	-0.49
5.735	-0.04	-0.14	0.96	0.92	-1.6	-0.33
5.745	-0.05	-0.17	0.97	0.92	-1.6	-0.33
5.747	-0.05	-0.17	0.97	0.79	-1.88	-0.2
5.754	-0.06	-0.17	0.98	0.79	-1.88	-0.2
5.755	-0.06	-0.17	0.98	0.69	-1.96	-0.11
5.764	-0.07	-0.16	0.99	0.69	-1.96	-0.11
5.765	-0.07	-0.16	0.99	0.58	-1.82	-0.04
5.774	-0.08	-0.12	0.99	0.58	-1.82	-0.04
5.775	-0.08	-0.12	0.99	0.51	-1.51	0.02
5.794	-0.09	-0.09	0.99	0.51	-1.51	0.02
5.795	-0.09	-0.09	0.99	0.48	-1.17	-0.01
5.797	-0.08	-0.05	0.97	0.48	-1.17	-0.01
5.798	-0.08	-0.05	0.97	0.53	-0.82	-0.19
5.809	-0.05	-0.01	0.96	0.53	-0.82	-0.19
5.81	-0.05	-0.01	0.96	0.79	-0.41	-0.32
5.815	-0.06	0.02	0.95	0.79	-0.41	-0.32
5.817	-0.06	0.02	0.95	0.68	-0.21	-0.41
5.824	-0.04	0.07	0.92	0.68	-0.21	-0.41
5.826	-0.04	0.07	0.92	0.92	0.3	-0.68
5.836	-0.03	0.09	0.93	0.92	0.3	-0.68
5.837	-0.03	0.09	0.93	1.0	0.5	-0.64
5.844	-0.04	0.11	0.94	1.0	0.5	-0.64
5.845	-0.04	0.11	0.94	0.95	0.61	-0.54
5.853	-0.04	0.11	0.93	0.95	0.61	-0.54
5.855	-0.04	0.11	0.93	0.91	0.6	-0.62
5.864	-0.05	0.1	0.94	0.91	0.6	-0.62
5.865	-0.05	0.1	0.94	0.8	0.49	-0.51
5.874	-0.06	0.09	0.94	0.8	0.49	-0.51
5.875	-0.06	0.09	0.94	0.68	0.34	-0.46
5.895	-0.07	0.08	0.95	0.68	0.34	-0.46
5.897	-0.07	0.08	0.95	0.57	0.21	-0.41
5.898	-0.08	0.07	0.96	0.57	0.21	-0.41
5.899	-0.08	0.07	0.96	0.46	0.11	-0.27
5.915	-0.09	0.07	0.96	0.46	0.11	-0.27
5.917	-0.09	0.07	0.96	0.29	0.04	-0.26
5.918	-0.11	0.06	0.97	0.29	0.04	-0.26
5.919	-0.11	0.06	0.97	0.07	-0.04	-0.17
5.924	-0.13	0.06	0.98	0.07	-0.04	-0.17
5.925	-0.13	0.06	0.98	-0.18	-0.11	-0.13
5.935	-0.16	0.05	0.98	-0.18	-0.11	-0.13
5.937	-0.16	0.05	0.98	-0.48	-0.2	-0.09
5.944	-0.19	0.05	0.98	-0.48	-0.2	-0.09
5.945	-0.19	0.05	0.98	-0.73	-0.25	-0.12
5.954	-0.2	0.05	0.97	-0.73	-0.25	-0.12
5.955	-0.2	0.05	0.97	-0.94	-0.24	-0.16
5.963	-0.22	0.06	0.96	-0.94	-0.24	-0.16
5.965	-0.22	0.06	0.96	-1.07	-0.19	-0.3
5.974	-0.22	0.06	0.95	-1.07	-0.19	-0.3
5.975	-0.22	0.06	0.95	-1.18	-0.17	-0.42
5.994	-0.22	0.07	0.93	-1.18	-0.17	-0.42
5.996	-0.22	0.07	0.93	-1.19	-0.16	-0.58
5.997	-0.2	0.07	0.93	-1.19	-0.16	-0.58
5.998	-0.2	0.07	0.93	-1.01	-0.1	-0.6
6.019	-0.11	0.11	0.98	-1.01	-0.1	-0.6
6.02	-0.11	0.11	0.98	-0.15	0.2	-0.16
6.025	0.04	0.17	1.08	-0.15	0.2	-0.16
6.026	0.04	0.17	1.08	1.33	0.83	0.87
6.027	0.14	0.22	1.16	1.33	0.83	0.87
6.028	0.14	0.22	1.16	2.33	1.3	1.62
6.035	0.11	0.21	1.2	2.33	1.3	1.62
6.037	0.11	0.21	1.2	1.97	1.23	1.99
6.044	-0.04	0.22	1.31	1.97	1.23	1.99
6.045	-0.04	0.22	1.31	0.46	1.23	3.1
6.054	-0.12	0.26	1.4	0.46	1.23	3.1
6.056	-0.12	0.26	1.4	-0.39	1.61	4.03
6.064	-0.13	0.31	1.41	-0.39	1.61	4.03
6.066	-0.13	0.31	1.41	-0.48	2.11	4.12
6.076	-0.1	0.3	1.35	-0.48	2.11	4.12
6.077	-0.1	0.3	1.35	-0.23	1.96	3.51
6.092	-0.08	0.22	1.24	-0.23	1.96	3.51
6.094	-0.08	0.22	1.24	-0.07	1.15	2.39
6.095	-0.08	0.11	1.12	-0.07	1.15	2.39
6.096	-0.08	0.11	1.12	-0.02	0.05	1.25
6.11	-0.09	-0.02	1.03	-0.02	0.05	1.25
6.112	-0.09	-0.02	1.03	-0.16	-1.3	0.38
6.118	-0.11	-0.15	0.97	-0.16	-1.3	0.38
6.119	-0.11	-0.15	0.97	-0.31	-2.55	-0.2
6.123	-0.11	-0.25	0.92	-0.31	-2.55	-0.2
6.125	-0.11	-0.25	0.92	-0.25	-3.56	-0.7
6.134	-0.06	-0.32	0.87	-0.25	-3.56	-0.7
6.136	-0.06	-0.32	0.87	0.19	-4.26	-1.15
6.143	0.0	-0.37	0.84	0.19	-4.26	-1.15
6.144	0.0	-0.37	0.84	0.85	-4.82	-1.47
6.153	0.08	-0.4	0.83	0.85	-4.82	-1.47
6.155	0.08	-0.4	0.83	1.59	-5.1	-1.55
6.164	0.14	-0.41	0.8	1.59	-5.1	-1.55
6.165	0.14	-0.41	0.8	2.18	-5.21	-1.85
6.174	0.2	-0.38	0.83	2.18	-5.21	-1.85
6.175	0.2	-0.38	0.83	2.74	-4.91	-1.61
6.194	0.19	-0.27	0.9	2.74	-4.91	-1.61
6.195	0.19	-0.27	0.9	2.63	-3.83	-0.91
6.196	0.18	-0.14	0.97	2.63	-3.83	-0.91
6.199	0.18	-0.14	0.97	2.57	-2.51	-0.18
6.209	0.15	-0.04	1.06	2.57	-2.51	-0.18
6.21	0.15	-0.04	1.06	2.2	-1.51	0.69
6.214	0.1	0.05	1.13	2.2	-1.51	0.69
6.215	0.1	0.05	1.13	1.65	-0.66	1.35
6.224	0.05	0.1	1.18	1.65	-0.66	1.35
6.225	0.05	0.1	1.18	1.12	-0.17	1.82
6.234	0.03	0.13	1.19	1.12	-0.17	1.82
6.236	0.03	0.13	1.19	0.87	0.16	1.95
6.244	0.03	0.13	1.19	0.87	0.16	1.95
6.245	0.03	0.13	1.19	0.83	0.12	1.92
6.254	0.03	0.1	1.15	0.83	0.12	1.92
6.255	0.03	0.1	1.15	0.89	-0.14	1.56
6.264	0.05	0.06	1.09	0.89	-0.14	1.56
6.265	0.05	0.06	1.09	1.02	-0.54	1.0
6.273	0.06	0.02	1.03	1.02	-0.54	1.0
6.275	0.06	0.02	1.03	1.15	-0.95	0.37
6.294	0.07	-0.02	0.98	1.15	-0.95	0.37
6.296	0.07	-0.02	0.98	1.25	-1.33	-0.16
6.297	0.08	-0.05	0.94	1.25	-1.33	-0.16
6.299	0.08	-0.05	0.94	1.33	-1.59	-0.54
6.319	0.08	-0.09	0.91	1.33	-1.59	-0.54
6.32	0.08	-0.09	0.91	1.35	-1.89	-0.77
6.321	0.09	-0.11	0.9	1.35	-1.89	-0.77
6.322	0.09	-0.11	0.9	1.34	-2.1	-0.92
6.324	0.08	-0.12	0.89	1.34	-2.1	-0.92
6.325	0.08	-0.12	0.89	1.3	-2.16	-0.99
6.333	0.07	-0.12	0.9	1.3	-2.16	-0.99
6.335	0.07	-0.12	0.9	1.21	-2.08	-0.95
6.344	0.07	-0.09	0.9	1.21	-2.08	-0.95
6.345	0.07	-0.09	0.9	1.18	-1.79	-0.9
6.354	0.07	-0.06	0.92	1.18	-1.79	-0.9
6.355	0.07	-0.06	0.92	1.12	-1.42	-0.76
6.366	0.06	-0.02	0.93	1.12	-1.42	-0.76
6.367	0.06	-0.02	0.93	1.04	-1.07	-0.61
6.374	0.06	0.01	0.95	1.04	-1.07	-0.61
6.374	0.06	0.01	0.95	0.99	-0.69	-0.48
6.383	0.04	0.07	0.98	0.99	-0.69	-0.48
6.385	0.04	0.07	0.98	0.79	-0.1	-0.19
6.394	0.03	0.09	0.99	0.79	-0.1	-0.19
6.394	0.03	0.09	0.99	0.69	0.1	-0.09
6.408	0.03	0.1	0.99	0.69	0.1	-0.09
6.41	0.03	0.1	0.99	0.63	0.25	-0.06
6.414	0.02	0.11	0.99	0.63	0.25	-0.06
6.415	0.02	0.11	0.99	0.55	0.37	-0.07
6.424	0.01	0.11	0.99	0.55	0.37	-0.07
6.425	0.01	0.11	0.99	0.44	0.43	-0.1
6.433	0.0	0.11	0.98	0.44	0.43	-0.1
6.435	0.0	0.11	0.98	0.32	0.45	-0.13
6.444	-0.01	0.11	0.98	0.32	0.45	-0.13
6.445	-0.01	0.11	0.98	0.21	0.45	-0.16
6.454	-0.02	0.1	0.97	0.21	0.45	-0.16
6.455	-0.02	0.1	0.97	0.08	0.33	-0.25
6.464	-0.03	0.08	0.95	0.08	0.33	-0.25
6.465	-0.03	0.08	0.95	0.01	0.19	-0.44
6.474	-0.03	0.06	0.96	0.01	0.19	-0.44
6.475	-0.03	0.06	0.96	-0.06	0.03	-0.38
6.494	-0.05	0.04	0.94	-0.06	0.03	-0.38
6.496	-0.05	0.04	0.94	-0.2	-0.22	-0.58
6.497	-0.05	0.02	0.93	-0.2	-0.22	-0.58
6.498	-0.05	0.02	0.93	-0.27	-0.39	-0.7
6.513	-0.07	0.0	0.93	-0.27	-0.39	-0.7
6.515	-0.07	0.0	0.93	-0.4	-0.52	-0.71
6.519	-0.08	-0.01	0.92	-0.4	-0.52	-0.71
6.52	-0.08	-0.01	0.92	-0.52	-0.65	-0.73
6.524	-0.09	-0.02	0.93	-0.52	-0.65	-0.73
6.525	-0.09	-0.02	0.93	-0.66	-0.76	-0.67
6.534	-0.1	-0.03	0.95	-0.66	-0.76	-0.67
6.535	-0.1	-0.03	0.95	-0.79	-0.78	-0.47
6.544	-0.1	-0.02	0.96	-0.79	-0.78	-0.47
6.545	-0.1	-0.02	0.96	-0.82	-0.76	-0.4
6.554	-0.1	-0.02	0.98	-0.82	-0.76	-0.4
6.557	-0.1	-0.02	0.98	-0.84	-0.74	-0.22
6.565	-0.11	-0.02	0.99	-0.84	-0.74	-0.22
6.566	-0.11	-0.02	0.99	-0.91	-0.71	-0.11
6.575	-0.11	-0.01	0.99	-0.91	-0.71	-0.11
6.577	-0.11	-0.01	0.99	-0.96	-0.64	-0.04
6.599	-0.12	0.0	1.0	-0.96	-0.64	-0.04
6.601	-0.12	0.0	1.0	-1.01	-0.59	0.04
6.602	-0.12	0.0	1.0	-1.01	-0.59	0.04
6.605	-0.12	0.0	1.0	-1.05	-0.5	0.04
6.61	-0.13	0.01	1.01	-1.05	-0.5	0.04
6.612	-0.13	0.01	1.01	-1.09	-0.43	0.14
6.624	-0.15	0.02	1.03	-1.09	-0.43	0.14
6.626	-0.15	0.02	1.03	-1.3	-0.32	0.34
6.634	-0.16	0.02	1.04	-1.3	-0.32	0.34
6.636	-0.16	0.02	1.04	-1.45	-0.34	0.43
6.644	-0.18	0.01	1.05	-1.45	-0.34	0.43
6.646	-0.18	0.01	1.05	-1.66	-0.49	0.5
6.654	-0.21	-0.03	1.06	-1.66	-0.49	0.5
6.656	-0.21	-0.03	1.06	-1.91	-0.88	0.59
6.665	-0.23	-0.07	1.04	-1.91	-0.88	0.59
6.666	-0.23	-0.07	1.04	-2.09	-1.24	0.45
6.675	-0.27	-0.13	1.07	-2.09	-1.24	0.45
6.676	-0.27	-0.13	1.07	-2.45	-1.84	0.7
6.694	-0.28	-0.17	1.05	-2.45	-1.84	0.7
6.697	-0.28	-0.17	1.05	-2.57	-2.27	0.48
6.704	-0.29	-0.21	1.03	-2.57	-2.27	0.48
6.706	-0.29	-0.21	1.03	-2.65	-2.63	0.31
6.707	-0.3	-0.24	1.03	-2.65	-2.63	0.31
6.709	-0.3	-0.24	1.03	-2.73	-2.92	0.3
6.714	-0.3	-0.26	1.02	-2.73	-2.92	0.3
6.716	-0.3	-0.26	1.02	-2.71	-3.16	0.18
6.724	-0.28	-0.27	1.01	-2.71	-3.16	0.18
6.725	-0.28	-0.27	1.01	-2.57	-3.19	0.12
6.734	-0.25	-0.27	1.04	-2.57	-3.19	0.12
6.735	-0.25	-0.27	1.04	-2.25	-3.25	0.39
6.744	-0.19	-0.3	1.08	-2.25	-3.25	0.39
6.745	-0.19	-0.3	1.08	-1.6	-3.48	0.79
6.754	-0.11	-0.33	1.11	-1.6	-3.48	0.79
6.756	-0.11	-0.33	1.11	-0.76	-3.75	1.14
6.768	-0.03	-0.3	1.16	-0.76	-3.75	1.14
6.77	-0.03	-0.3	1.16	0.0	-3.47	1.58
6.774	-0.03	-0.23	1.21	0.0	-3.47	1.58
6.775	-0.03	-0.23	1.21	0.05	-2.77	2.1
6.784	-0.06	-0.16	1.31	0.05	-2.77	2.1
6.785	-0.06	-0.16	1.31	-0.3	-2.08	3.01
6.794	-0.12	-0.12	1.4	-0.3	-2.08	3.01
6.795	-0.12	-0.12	1.4	-0.86	-1.7	3.9
6.81	-0.14	-0.11	1.43	-0.86	-1.7	3.9
6.811	-0.14	-0.11	1.43	-1.14	-1.56	4.26
6.829	-0.12	-0.08	1.41	-1.14	-1.56	4.26
6.83	-0.12	-0.08	1.41	-0.91	-1.29	4.04
6.832	-0.05	-0.04	1.31	-0.91	-1.29	4.04
6.835	-0.05	-0.04	1.31	-0.21	-0.82	3.09
6.837	0.05	0.02	1.18	-0.21	-0.82	3.09
6.838	0.05	0.02	1.18	0.79	-0.23	1.78
6.845	0.14	0.09	1.05	0.79	-0.23	1.78
6.846	0.14	0.09	1.05	1.79	0.39	0.52
6.854	0.2	0.14	0.95	1.79	0.39	0.52
6.856	0.2	0.14	0.95	2.46	0.93	-0.46
6.869	0.23	0.19	0.88	2.46	0.93	-0.46
6.87	0.23	0.19	0.88	2.75	1.38	-1.18
6.874	0.23	0.21	0.82	2.75	1.38	-1.18
6.875	0.23	0.21	0.82	2.84	1.57	-1.71
6.884	0.23	0.2	0.79	2.84	1.57	-1.71
6.885	0.23	0.2	0.79	2.84	1.5	-2.04
6.894	0.21	0.17	0.77	2.84	1.5	-2.04
6.895	0.21	0.17	0.77	2.68	1.2	-2.2
6.907	0.18	0.12	0.77	2.68	1.2	-2.2
6.909	0.18	0.12	0.77	2.41	0.74	-2.2
6.924	0.14	0.07	0.79	2.41	0.74	-2.2
6.925	0.14	0.07	0.79	2.1	0.19	-2.02
6.926	0.11	0.01	0.83	2.1	0.19	-2.02
6.927	0.11	0.01	0.83	1.73	-0.41	-1.65
6.935	0.06	-0.05	0.88	1.73	-0.41	-1.65
6.937	0.06	-0.05	0.88	1.27	-0.97	-1.14
6.944	0.01	-0.1	0.95	1.27	-0.97	-1.14
6.945	0.01	-0.1	0.95	0.79	-1.49	-0.48
6.954	-0.04	-0.15	1.02	0.79	-1.49	-0.48
6.956	-0.04	-0.15	1.02	0.26	-1.95	0.19
6.968	-0.08	-0.19	1.07	0.26	-1.95	0.19
6.969	-0.08	-0.19	1.07	-0.08	-2.35	0.74
6.974	-0.09	-0.22	1.11	-0.08	-2.35	0.74
6.975	-0.09	-0.22	1.11	-0.24	-2.66	1.07
6.984	-0.09	-0.23	1.11	-0.24	-2.66	1.07
6.985	-0.09	-0.23	1.11	-0.22	-2.78	1.09
6.994	-0.08	-0.22	1.1	-0.22	-2.78	1.09
6.995	-0.08	-0.22	1.1	-0.09	-2.64	1.02
7.009	-0.07	-0.18	1.08	-0.09	-2.64	1.02
7.011	-0.07	-0.18	1.08	0.05	-2.23	0.85
7.03	-0.05	-0.05	1.04	0.05	-2.23	0.85
7.031	-0.05	-0.05	1.04	0.31	-0.98	0.44
7.038	-0.04	0.0	1.02	0.31	-0.98	0.44
7.04	-0.04	0.0	1.02	0.37	-0.5	0.2
7.041	-0.04	0.05	0.98	0.37	-0.5	0.2
7.042	-0.04	0.05	0.98	0.44	-0.02	-0.13
7.044	-0.04	0.1	0.95	0.44	-0.02	-0.13
7.045	-0.04	0.1	0.95	0.47	0.41	-0.41
7.054	-0.04	0.13	0.92	0.47	0.41	-0.41
7.057	-0.04	0.13	0.92	0.44	0.78	-0.71
7.066	-0.05	0.15	0.89	0.44	0.78	-0.71
7.068	-0.05	0.15	0.89	0.35	0.93	-1.03
7.074	-0.07	0.15	0.86	0.35	0.93	-1.03
7.075	-0.07	0.15	0.86	0.15	0.88	-1.29
7.084	-0.08	0.14	0.86	0.15	0.88	-1.29
7.086	-0.08	0.14	0.86	0.06	0.81	-1.35
7.094	-0.1	0.14	0.85	0.06	0.81	-1.35
7.095	-0.1	0.14	0.85	-0.04	0.75	-1.41
7.112	-0.11	0.13	0.86	-0.04	0.75	-1.41
7.114	-0.11	0.13	0.86	-0.16	0.66	-1.33
7.115	-0.11	0.12	0.86	-0.16	0.66	-1.33
7.116	-0.11	0.12	0.86	-0.21	0.59	-1.28
7.124	-0.13	0.11	0.88	-0.21	0.59	-1.28
7.125	-0.13	0.11	0.88	-0.34	0.41	-1.14
7.134	-0.14	0.09	0.89	-0.34	0.41	-1.14
7.136	-0.14	0.09	0.89	-0.45	0.22	-1.04
7.144	-0.14	0.07	0.9	-0.45	0.22	-1.04
7.145	-0.14	0.07	0.9	-0.53	0.01	-0.92
7.154	-0.16	0.06	0.91	-0.53	0.01	-0.92
7.155	-0.16	0.06	0.91	-0.67	-0.08	-0.84
7.165	-0.17	0.06	0.91	-0.67	-0.08	-0.84
7.167	-0.17	0.06	0.91	-0.76	-0.11	-0.81
7.174	-0.17	0.07	0.91	-0.76	-0.11	-0.81
7.175	-0.17	0.07	0.91	-0.8	-0.04	-0.86
7.185	-0.17	0.07	0.89	-0.8	-0.04	-0.86
7.185	-0.17	0.07	0.89	-0.78	-0.09	-0.98
7.194	-0.17	0.06	0.88	-0.78	-0.09	-0.98
7.195	-0.17	0.06	0.88	-0.83	-0.19	-1.08
7.207	-0.18	0.05	0.88	-0.83	-0.19	-1.08
7.209	-0.18	0.05	0.88	-0.9	-0.34	-1.11
7.226	-0.18	0.03	0.87	-0.9	-0.34	-1.11
7.227	-0.18	0.03	0.87	-0.89	-0.5	-1.18
7.229	-0.17	0.02	0.86	-0.89	-0.5	-1.18
7.23	-0.17	0.02	0.86	-0.84	-0.58	-1.28
7.238	-0.16	0.01	0.86	-0.84	-0.58	-1.28
7.24	-0.16	0.01	0.86	-0.82	-0.66	-1.31
7.244	-0.16	0.01	0.86	-0.82	-0.66	-1.31
7.246	-0.16	0.01	0.86	-0.8	-0.73	-1.34
7.254	-0.16	0.0	0.86	-0.8	-0.73	-1.34
7.255	-0.16	0.0	0.86	-0.8	-0.78	-1.35
7.268	-0.16	0.0	0.87	-0.8	-0.78	-1.35
7.269	-0.16	0.0	0.87	-0.84	-0.76	-1.24
7.273	-0.16	0.02	0.89	-0.84	-0.76	-1.24
7.274	-0.16	0.02	0.89	-0.91	-0.64	-0.98
7.284	-0.16	0.05	0.93	-0.91	-0.64	-0.98
7.285	-0.16	0.05	0.93	-0.86	-0.32	-0.65
7.294	-0.15	0.07	0.96	-0.86	-0.32	-0.65
7.295	-0.15	0.07	0.96	-0.89	-0.1	-0.33
7.309	-0.16	0.08	1.0	-0.89	-0.1	-0.33
7.311	-0.16	0.08	1.0	-0.96	0.05	0.01
7.329	-0.17	0.08	1.03	-0.96	0.05	0.01
7.331	-0.17	0.08	1.03	-1.06	0.02	0.34
7.331	-0.18	0.07	1.05	-1.06	0.02	0.34
7.333	-0.18	0.07	1.05	-1.19	-0.11	0.57
7.335	-0.19	0.05	1.07	-1.19	-0.11	0.57
7.336	-0.19	0.05	1.07	-1.37	-0.3	0.69
7.344	-0.2	0.03	1.07	-1.37	-0.3	0.69
7.345	-0.2	0.03	1.07	-1.5	-0.45	0.74
7.354	-0.21	0.02	1.07	-1.5	-0.45	0.74
7.356	-0.21	0.02	1.07	-1.6	-0.58	0.69
7.364	-0.21	0.01	1.06	-1.6	-0.58	0.69
7.367	-0.21	0.01	1.06	-1.61	-0.62	0.64
7.374	-0.22	0.0	1.07	-1.61	-0.62	0.64
7.375	-0.22	0.0	1.07	-1.69	-0.69	0.74
7.384	-0.24	-0.01	1.06	-1.69	-0.69	0.74
7.385	-0.24	-0.01	1.06	-1.96	-0.83	0.64
7.394	-0.26	-0.03	1.06	-1.96	-0.83	0.64
7.395	-0.26	-0.03	1.06	-2.16	-0.95	0.6
7.407	-0.3	-0.04	1.04	-2.16	-0.95	0.6
7.409	-0.3	-0.04	1.04	-2.48	-1.08	0.41
7.434	-0.32	-0.05	1.03	-2.48	-1.08	0.41
7.436	-0.32	-0.05	1.03	-2.69	-1.16	0.28
7.437	-0.35	-0.06	1.02	-2.69	-1.16	0.28
7.438	-0.35	-0.06	1.02	-2.97	-1.26	0.2
7.439	-0.36	-0.08	1.02	-2.97	-1.26	0.2
7.439	-0.36	-0.08	1.02	-3.09	-1.43	0.23
7.444	-0.35	-0.09	1.05	-3.09	-1.43	0.23
7.447	-0.35	-0.09	1.05	-3.01	-1.46	0.52
7.454	-0.26	-0.06	1.12	-3.01	-1.46	0.52
7.456	-0.26	-0.06	1.12	-2.07	-1.15	1.22
7.464	-0.12	0.02	1.23	-2.07	-1.15	1.22
7.465	-0.12	0.02	1.23	-0.69	-0.38	2.28
7.474	-0.05	0.08	1.32	-0.69	-0.38	2.28
7.475	-0.05	0.08	1.32	-0.01	0.22	3.18
7.49	-0.05	0.09	1.38	-0.01	0.22	3.18
7.491	-0.05	0.09	1.38	-0.09	0.3	3.72
7.495	-0.12	0.08	1.43	-0.09	0.3	3.72
7.496	-0.12	0.08	1.43	-0.7	0.17	4.24
7.509	-0.17	0.08	1.46	-0.7	0.17	4.24
7.51	-0.17	0.08	1.46	-1.24	0.14	4.54
7.518	-0.17	0.11	1.47	-1.24	0.14	4.54
7.52	-0.17	0.11	1.47	-1.26	0.49	4.6
7.526	-0.1	0.18	1.43	-1.26	0.49	4.6
7.527	-0.1	0.18	1.43	-0.63	1.13	4.28
7.534	-0.03	0.22	1.35	-0.63	1.13	4.28
7.535	-0.03	0.22	1.35	0.07	1.48	3.44
7.544	0.03	0.21	1.22	0.07	1.48	3.44
7.545	0.03	0.21	1.22	0.66	1.37	2.21
7.554	0.07	0.18	1.08	0.66	1.37	2.21
7.555	0.07	0.18	1.08	1.18	1.06	0.86
7.567	0.1	0.13	0.86	1.18	1.06	0.86
7.569	0.1	0.13	0.86	1.52	0.46	-1.33
7.591	0.11	0.1	0.8	1.52	0.46	-1.33
7.593	0.11	0.1	0.8	1.59	0.17	-1.96
7.595	0.11	0.07	0.75	1.59	0.17	-1.96
7.597	0.11	0.07	0.75	1.68	-0.11	-2.39
7.61	0.13	0.05	0.71	1.68	-0.11	-2.39
7.612	0.13	0.05	0.71	1.84	-0.32	-2.84
7.62	0.14	0.03	0.66	1.84	-0.32	-2.84
7.622	0.14	0.03	0.66	1.98	-0.52	-3.28
7.624	0.17	0.02	0.62	1.98	-0.52	-3.28
7.625	0.17	0.02	0.62	2.24	-0.65	-3.73
7.634	0.19	0.01	0.59	2.24	-0.65	-3.73
7.635	0.19	0.01	0.59	2.47	-0.66	-4.02
7.644	0.18	0.03	0.65	2.47	-0.66	-4.02
7.645	0.18	0.03	0.65	2.43	-0.51	-3.37
7.654	0.15	0.04	0.79	2.43	-0.51	-3.37
7.655	0.15	0.04	0.79	2.08	-0.37	-2.05
7.665	0.09	0.05	1.1	2.08	-0.37	-2.05
7.666	0.09	0.05	1.1	1.54	-0.25	1.05
7.674	0.04	0.07	1.23	1.54	-0.25	1.05
7.675	0.04	0.07	1.23	1.0	-0.12	2.29
7.684	-0.03	0.09	1.3	1.0	-0.12	2.29
7.685	-0.03	0.09	1.3	0.26	0.15	2.93
7.694	-0.07	0.09	1.32	0.26	0.15	2.93
7.696	-0.07	0.09	1.32	-0.09	0.14	3.19
7.713	-0.1	0.07	1.3	-0.09	0.14	3.19
7.715	-0.1	0.07	1.3	-0.4	-0.03	2.97
7.716	-0.12	0.04	1.25	-0.4	-0.03	2.97
7.718	-0.12	0.04	1.25	-0.62	-0.37	2.5
7.724	-0.11	0.0	1.19	-0.62	-0.37	2.5
7.725	-0.11	0.0	1.19	-0.55	-0.73	1.85
7.736	-0.08	-0.03	1.09	-0.55	-0.73	1.85
7.737	-0.08	-0.03	1.09	-0.23	-0.98	0.93
7.744	-0.04	-0.05	0.98	-0.23	-0.98	0.93
7.746	-0.04	-0.05	0.98	0.2	-1.1	-0.13
7.755	0.0	-0.05	0.87	0.2	-1.1	-0.13
7.757	0.0	-0.05	0.87	0.66	-1.14	-1.2
7.764	0.03	-0.06	0.78	0.66	-1.14	-1.2
7.766	0.03	-0.06	0.78	1.08	-1.12	-2.12
7.774	0.06	-0.06	0.71	1.08	-1.12	-2.12
7.775	0.06	-0.06	0.71	1.4	-1.17	-2.77
7.784	0.09	-0.07	0.65	1.4	-1.17	-2.77
7.785	0.09	-0.07	0.65	1.66	-1.2	-3.41
7.794	0.09	-0.09	0.64	1.66	-1.2	-3.41
7.795	0.09	-0.09	0.64	1.69	-1.39	-3.52
7.808	0.07	-0.11	0.66	1.69	-1.39	-3.52
7.809	0.07	-0.11	0.66	1.55	-1.5	-3.34
7.827	0.03	-0.12	0.71	1.55	-1.5	-3.34
7.831	0.03	-0.12	0.71	1.12	-1.61	-2.81
7.834	-0.09	-0.17	0.88	1.12	-1.61	-2.81
7.835	-0.09	-0.17	0.88	-0.11	-2.06	-1.15
7.844	-0.14	-0.19	0.97	-0.11	-2.06	-1.15
7.845	-0.14	-0.19	0.97	-0.59	-2.19	-0.23
7.854	-0.17	-0.19	1.05	-0.59	-2.19	-0.23
7.856	-0.17	-0.19	1.05	-0.96	-2.23	0.5
7.865	-0.19	-0.19	1.1	-0.96	-2.23	0.5
7.866	-0.19	-0.19	1.1	-1.22	-2.13	1.02
7.874	-0.2	-0.17	1.13	-1.22	-2.13	1.02
7.875	-0.2	-0.17	1.13	-1.31	-1.99	1.29
7.89	-0.19	-0.16	1.13	-1.31	-1.99	1.29
7.892	-0.19	-0.16	1.13	-1.3	-1.79	1.34
7.906	-0.17	-0.11	1.07	-1.3	-1.79	1.34
7.908	-0.17	-0.11	1.07	-1.04	-1.27	0.71
7.917	-0.14	-0.08	1.02	-1.04	-1.27	0.71
7.918	-0.14	-0.08	1.02	-0.79	-0.96	0.2
7.924	-0.12	-0.05	0.97	-0.79	-0.96	0.2
7.925	-0.12	-0.05	0.97	-0.55	-0.69	-0.25
7.934	-0.09	-0.02	0.93	-0.55	-0.69	-0.25
7.937	-0.09	-0.02	0.93	-0.31	-0.41	-0.69
7.944	-0.08	0.0	0.89	-0.31	-0.41	-0.69
7.946	-0.08	0.0	0.89	-0.16	-0.15	-1.03
7.954	-0.08	0.02	0.88	-0.16	-0.15	-1.03
7.955	-0.08	0.02	0.88	-0.13	0.04	-1.21
7.964	-0.08	0.04	0.87	-0.13	0.04	-1.21
7.965	-0.08	0.04	0.87	-0.19	0.23	-1.23
7.974	-0.09	0.05	0.88	-0.19	0.23	-1.23
7.975	-0.09	0.05	0.88	-0.3	0.36	-1.13
7.992	-0.11	0.05	0.91	-0.3	0.36	-1.13
7.993	-0.11	0.05	0.91	-0.45	0.41	-0.88
7.995	-0.12	0.05	0.94	-0.45	0.41	-0.88
7.997	-0.12	0.05	0.94	-0.6	0.35	-0.61
8.012	-0.13	0.04	0.96	-0.6	0.35	-0.61
8.013	-0.13	0.04	0.96	-0.7	0.27	-0.35
8.014	-0.13	0.02	0.99	-0.7	0.27	-0.35
8.015	-0.13	0.02	0.99	-0.78	0.1	-0.07
8.023	-0.14	0.01	1.0	-0.78	0.1	-0.07
8.025	-0.14	0.01	1.0	-0.85	0.02	-0.02
8.034	-0.14	0.0	1.0	-0.85	0.02	-0.02
8.035	-0.14	0.0	1.0	-0.9	-0.14	-0.02
8.044	-0.15	-0.02	1.01	-0.9	-0.14	-0.02
8.048	-0.15	-0.02	1.01	-1.02	-0.31	0.11
8.056	-0.15	-0.04	1.01	-1.02	-0.31	0.11
8.057	-0.15	-0.04	1.01	-0.99	-0.47	0.11
8.065	-0.14	-0.05	1.01	-0.99	-0.47	0.11
8.067	-0.14	-0.05	1.01	-0.97	-0.62	0.1
8.074	-0.14	-0.06	1.01	-0.97	-0.62	0.1
8.076	-0.14	-0.06	1.01	-0.9	-0.74	0.07
8.084	-0.13	-0.07	1.01	-0.9	-0.74	0.07
8.085	-0.13	-0.07	1.01	-0.84	-0.79	0.06
8.116	-0.12	-0.07	1.01	-0.84	-0.79	0.06
8.117	-0.12	-0.07	1.01	-0.74	-0.86	0.05
8.118	-0.12	-0.08	1.02	-0.74	-0.86	0.05
8.119	-0.12	-0.08	1.02	-0.78	-0.96	0.17
8.12	-0.14	-0.1	1.05	-0.78	-0.96	0.17
8.121	-0.14	-0.1	1.05	-0.92	-1.14	0.45
8.124	-0.16	-0.12	1.08	-0.92	-1.14	0.45
8.126	-0.16	-0.12	1.08	-1.16	-1.33	0.8
8.134	-0.19	-0.14	1.11	-1.16	-1.33	0.8
8.136	-0.19	-0.14	1.11	-1.42	-1.52	1.12
8.144	-0.2	-0.14	1.12	-1.42	-1.52	1.12
8.145	-0.2	-0.14	1.12	-1.57	-1.58	1.23
8.154	-0.22	-0.14	1.11	-1.57	-1.58	1.23
8.155	-0.22	-0.14	1.11	-1.73	-1.6	1.07
8.164	-0.23	-0.13	1.08	-1.73	-1.6	1.07
8.165	-0.23	-0.13	1.08	-1.85	-1.5	0.78
8.175	-0.23	-0.11	1.03	-1.85	-1.5	0.78
8.175	-0.23	-0.11	1.03	-1.87	-1.32	0.34
8.189	-0.24	-0.09	0.99	-1.87	-1.32	0.34
8.19	-0.24	-0.09	0.99	-1.87	-1.1	-0.12
8.194	-0.24	-0.07	0.95	-1.87	-1.1	-0.12
8.195	-0.24	-0.07	0.95	-1.84	-0.92	-0.48
8.208	-0.23	-0.06	0.94	-1.84	-0.92	-0.48
8.209	-0.23	-0.06	0.94	-1.78	-0.81	-0.55
8.22	-0.21	-0.06	0.98	-1.78	-0.81	-0.55
8.222	-0.21	-0.06	0.98	-1.56	-0.82	-0.21
8.224	-0.16	-0.09	1.04	-1.56	-0.82	-0.21
8.225	-0.16	-0.09	1.04	-1.06	-1.11	0.4
8.234	-0.11	-0.12	1.1	-1.06	-1.11	0.4
8.235	-0.11	-0.12	1.1	-0.53	-1.39	0.96
8.244	-0.09	-0.11	1.18	-0.53	-1.39	0.96
8.245	-0.09	-0.11	1.18	-0.34	-1.33	1.79
8.254	-0.12	-0.1	1.3	-0.34	-1.33	1.79
8.255	-0.12	-0.1	1.3	-0.65	-1.23	2.91
8.265	-0.15	-0.11	1.39	-0.65	-1.23	2.91
8.266	-0.15	-0.11	1.39	-0.98	-1.32	3.87
8.274	-0.15	-0.14	1.44	-0.98	-1.32	3.87
8.275	-0.15	-0.14	1.44	-0.99	-1.64	4.32
8.284	-0.11	-0.19	1.42	-0.99	-1.64	4.32
8.285	-0.11	-0.19	1.42	-0.58	-2.06	4.11
8.305	-0.05	-0.18	1.34	-0.58	-2.06	4.11
8.307	-0.05	-0.18	1.34	0.08	-1.94	3.3
8.308	0.01	-0.11	1.24	0.08	-1.94	3.3
8.309	0.01	-0.11	1.24	0.63	-1.3	2.4
8.325	0.05	-0.04	1.1	0.63	-1.3	2.4
8.326	0.05	-0.04	1.1	1.13	-0.64	0.97
8.327	0.11	0.07	1.05	1.13	-0.64	0.97
8.328	0.11	0.07	1.05	1.69	0.53	0.49
8.335	0.13	0.14	1.01	1.69	0.53	0.49
8.337	0.13	0.14	1.01	1.92	1.14	0.09
8.344	0.14	0.2	0.95	1.92	1.14	0.09
8.345	0.14	0.2	0.95	2.05	1.72	-0.45
8.354	0.14	0.25	0.91	2.05	1.72	-0.45
8.355	0.14	0.25	0.91	2.15	2.2	-0.87
8.364	0.15	0.27	0.84	2.15	2.2	-0.87
8.366	0.15	0.27	0.84	2.27	2.43	-1.55
8.374	0.16	0.28	0.79	2.27	2.43	-1.55
8.375	0.16	0.28	0.79	2.38	2.47	-2.01
8.385	0.17	0.27	0.75	2.38	2.47	-2.01
8.386	0.17	0.27	0.75	2.49	2.37	-2.46
8.407	0.17	0.24	0.72	2.49	2.37	-2.46
8.409	0.17	0.24	0.72	2.51	2.05	-2.68
8.41	0.16	0.19	0.74	2.51	2.05	-2.68
8.411	0.16	0.19	0.74	2.45	1.57	-2.56
8.429	0.14	0.14	0.78	2.45	1.57	-2.56
8.43	0.14	0.14	0.78	2.26	1.07	-2.16
8.431	0.1	0.09	0.84	2.26	1.07	-2.16
8.432	0.1	0.09	0.84	1.91	0.53	-1.51
8.434	0.06	0.04	0.92	1.91	0.53	-1.51
8.435	0.06	0.04	0.92	1.53	0.03	-0.78
8.446	0.02	-0.02	0.99	1.53	0.03	-0.78
8.447	0.02	-0.02	0.99	1.12	-0.5	-0.08
8.454	-0.01	-0.07	1.06	1.12	-0.5	-0.08
8.455	-0.01	-0.07	1.06	0.82	-1.0	0.66
8.464	-0.03	-0.12	1.11	0.82	-1.0	0.66
8.465	-0.03	-0.12	1.11	0.64	-1.5	1.13
8.474	-0.02	-0.14	1.12	0.64	-1.5	1.13
8.475	-0.02	-0.14	1.12	0.65	-1.7	1.23
8.488	-0.01	-0.14	1.12	0.65	-1.7	1.23
8.49	-0.01	-0.14	1.12	0.81	-1.73	1.18
8.509	0.01	-0.11	1.09	0.81	-1.73	1.18
8.511	0.01	-0.11	1.09	1.04	-1.42	0.92
8.512	0.03	-0.06	1.05	1.04	-1.42	0.92
8.512	0.03	-0.06	1.05	1.26	-0.92	0.57
8.514	0.05	0.0	1.01	1.26	-0.92	0.57
8.515	0.05	0.0	1.01	1.4	-0.36	0.15
8.524	0.06	0.05	0.97	1.4	-0.36	0.15
8.525	0.06	0.05	0.97	1.5	0.14	-0.23
8.534	0.05	0.09	0.94	1.5	0.14	-0.23
8.535	0.05	0.09	0.94	1.5	0.51	-0.56
8.549	0.04	0.11	0.91	1.5	0.51	-0.56
8.551	0.04	0.11	0.91	1.34	0.66	-0.88
8.555	0.01	0.12	0.87	1.34	0.66	-0.88
8.557	0.01	0.12	0.87	1.11	0.75	-1.19
8.564	-0.02	0.12	0.85	1.11	0.75	-1.19
8.566	-0.02	0.12	0.85	0.85	0.76	-1.44
8.574	-0.03	0.12	0.86	0.85	0.76	-1.44
8.575	-0.03	0.12	0.86	0.69	0.72	-1.28
8.584	-0.05	0.12	0.87	0.69	0.72	-1.28
8.585	-0.05	0.12	0.87	0.47	0.66	-1.23
8.607	-0.08	0.11	0.88	0.47	0.66	-1.23
8.609	-0.08	0.11	0.88	0.24	0.62	-1.13
8.61	-0.08	0.1	0.95	0.24	0.62	-1.13
8.611	-0.08	0.1	0.95	0.23	0.48	-0.46
8.627	-0.09	0.09	0.94	0.23	0.48	-0.46
8.628	-0.09	0.09	0.94	0.08	0.36	-0.5
8.634	-0.1	0.06	1.0	0.08	0.36	-0.5
8.635	-0.1	0.06	1.0	0.02	0.04	0.02
8.646	-0.09	0.05	1.0	0.02	0.04	0.02
8.649	-0.09	0.05	1.0	0.08	-0.09	0.07
8.654	-0.09	0.03	1.01	0.08	-0.09	0.07
8.655	-0.09	0.03	1.01	0.09	-0.25	0.16
8.664	-0.08	0.02	1.01	0.09	-0.25	0.16
8.665	-0.08	0.02	1.01	0.15	-0.35	0.11
8.674	-0.08	0.02	1.0	0.15	-0.35	0.11
8.675	-0.08	0.02	1.0	0.14	-0.44	0.04
8.687	-0.08	0.02	0.98	0.14	-0.44	0.04
8.689	-0.08	0.02	0.98	0.16	-0.43	-0.19
8.709	-0.08	0.02	0.96	0.16	-0.43	-0.19
8.71	-0.08	0.02	0.96	0.17	-0.44	-0.37
8.712	-0.07	0.01	0.95	0.17	-0.44	-0.37
8.713	-0.07	0.01	0.95	0.25	-0.47	-0.45
8.714	-0.06	0.01	0.95	0.25	-0.47	-0.45
8.715	-0.06	0.01	0.95	0.32	-0.47	-0.48
8.724	-0.07	0.01	0.96	0.32	-0.47	-0.48
8.725	-0.07	0.01	0.96	0.27	-0.56	-0.32
8.734	-0.06	0.0	0.99	0.27	-0.56	-0.32
8.735	-0.06	0.0	0.99	0.32	-0.64	-0.04
8.745	-0.06	-0.02	1.01	0.32	-0.64	-0.04
8.747	-0.06	-0.02	1.01	0.33	-0.77	0.19
8.754	-0.04	-0.02	1.07	0.33	-0.77	0.19
8.755	-0.04	-0.02	1.07	0.54	-0.78	0.72
8.764	0.0	-0.01	1.1	0.54	-0.78	0.72
8.765	0.0	-0.01	1.1	0.89	-0.64	1.01
8.773	-0.01	0.0	1.11	0.89	-0.64	1.01
8.774	-0.01	0.0	1.11	0.8	-0.59	1.09
8.789	-0.05	0.0	1.1	0.8	-0.59	1.09
8.79	-0.05	0.0	1.1	0.41	-0.56	1.0
8.808	-0.08	0.02	1.09	0.41	-0.56	1.0
8.81	-0.08	0.02	1.09	0.1	-0.38	0.9
8.814	-0.11	0.04	1.02	0.1	-0.38	0.9
8.816	-0.11	0.04	1.02	-0.19	-0.17	0.29
8.824	-0.11	0.03	1.0	-0.19	-0.17	0.29
8.825	-0.11	0.03	1.0	-0.19	-0.29	0.06
8.834	-0.1	0.02	0.99	-0.19	-0.29	0.06
8.837	-0.1	0.02	0.99	-0.12	-0.41	-0.08
8.847	-0.1	0.01	0.99	-0.12	-0.41	-0.08
8.849	-0.1	0.01	0.99	-0.11	-0.46	-0.03
8.854	-0.1	0.02	0.99	-0.11	-0.46	-0.03
8.854	-0.1	0.02	0.99	-0.08	-0.38	-0.01
8.864	-0.1	0.04	0.99	-0.08	-0.38	-0.01
8.865	-0.1	0.04	0.99	-0.1	-0.24	-0.01
8.874	-0.1	0.05	0.99	-0.1	-0.24	-0.01
8.875	-0.1	0.05	0.99	-0.11	-0.09	-0.01
8.888	-0.1	0.07	0.99	-0.11	-0.09	-0.01
8.889	-0.1	0.07	0.99	-0.1	0.04	-0.05
8.905	-0.09	0.07	0.98	-0.1	0.04	-0.05
8.907	-0.09	0.07	0.98	0.03	0.12	-0.17
8.908	-0.07	0.07	0.97	0.03	0.12	-0.17
8.909	-0.07	0.07	0.97	0.18	0.11	-0.26
8.916	-0.06	0.07	0.96	0.18	0.11	-0.26
8.917	-0.06	0.07	0.96	0.28	0.04	-0.31
8.924	-0.05	0.06	0.97	0.28	0.04	-0.31
8.926	-0.05	0.06	0.97	0.36	-0.04	-0.21
8.934	-0.05	0.05	0.98	0.36	-0.04	-0.21
8.935	-0.05	0.05	0.98	0.42	-0.14	-0.18
8.945	-0.03	0.03	0.98	0.42	-0.14	-0.18
8.946	-0.03	0.03	0.98	0.54	-0.38	-0.14
8.954	-0.03	0.03	0.99	0.54	-0.38	-0.14
8.955	-0.03	0.03	0.99	0.54	-0.38	-0.09
8.964	-0.03	0.02	1.0	0.54	-0.38	-0.09
8.965	-0.03	0.02	1.0	0.58	-0.45	0.03
8.974	-0.03	0.01	1.01	0.58	-0.45	0.03
8.975	-0.03	0.01	1.01	0.56	-0.61	0.17
8.989	-0.04	0.0	1.03	0.56	-0.61	0.17
8.991	-0.04	0.0	1.03	0.43	-0.71	0.37
9.015	-0.06	-0.01	1.05	0.43	-0.71	0.37
9.017	-0.06	-0.01	1.05	0.27	-0.81	0.57
9.018	-0.06	-0.02	1.05	0.27	-0.81	0.57
9.018	-0.06	-0.02	1.05	0.17	-0.87	0.59
9.019	-0.07	-0.02	1.05	0.17	-0.87	0.59
9.02	-0.07	-0.02	1.05	0.09	-0.92	0.53
9.024	-0.07	-0.02	1.04	0.09	-0.92	0.53
9.026	-0.07	-0.02	1.04	0.07	-0.92	0.4
9.035	-0.07	-0.02	1.02	0.07	-0.92	0.4
9.036	-0.07	-0.02	1.02	0.07	-0.88	0.22
9.048	-0.07	-0.01	0.99	0.07	-0.88	0.22
9.049	-0.07	-0.01	0.99	0.1	-0.82	-0.03
9.054	-0.07	-0.01	0.97	0.1	-0.82	-0.03
9.055	-0.07	-0.01	0.97	0.13	-0.79	-0.22
9.064	-0.06	-0.01	0.96	0.13	-0.79	-0.22
9.065	-0.06	-0.01	0.96	0.14	-0.76	-0.36
9.074	-0.06	0.0	0.95	0.14	-0.76	-0.36
9.075	-0.06	0.0	0.95	0.14	-0.74	-0.39
9.095	-0.07	0.0	0.96	0.14	-0.74	-0.39
9.097	-0.07	0.0	0.96	0.12	-0.71	-0.38
9.098	-0.07	0.0	0.96	0.12	-0.71	-0.38
9.099	-0.07	0.0	0.96	0.08	-0.66	-0.3
9.105	-0.08	0.01	0.98	0.08	-0.66	-0.3
9.107	-0.08	0.01	0.98	0.0	-0.62	-0.13
9.118	-0.08	0.01	0.99	0.0	-0.62	-0.13
9.12	-0.08	0.01	0.99	-0.04	-0.6	-0.04
9.128	-0.09	0.01	1.01	-0.04	-0.6	-0.04
9.129	-0.09	0.01	1.01	-0.11	-0.58	0.1
9.134	-0.08	0.02	1.02	-0.11	-0.58	0.1
9.136	-0.08	0.02	1.02	-0.11	-0.52	0.2
9.145	-0.08	0.02	1.03	-0.11	-0.52	0.2
9.147	-0.08	0.02	1.03	-0.1	-0.49	0.31
9.154	-0.08	0.03	1.03	-0.1	-0.49	0.31
9.155	-0.08	0.03	1.03	-0.04	-0.43	0.31
9.164	-0.07	0.03	1.03	-0.04	-0.43	0.31
9.166	-0.07	0.03	1.03	0.01	-0.37	0.29
9.174	-0.07	0.04	1.02	0.01	-0.37	0.29
9.175	-0.07	0.04	1.02	0.01	-0.3	0.23
9.184	-0.06	0.04	1.02	0.01	-0.3	0.23
9.185	-0.06	0.04	1.02	0.04	-0.26	0.2
9.206	-0.06	0.04	1.01	0.04	-0.26	0.2
9.207	-0.06	0.04	1.01	0.03	-0.25	0.14
9.209	-0.06	0.04	1.01	0.03	-0.25	0.14
9.213	-0.06	0.04	1.01	0.03	-0.25	0.1
9.215	-0.06	0.03	1.0	0.03	-0.25	0.1
9.216	-0.06	0.03	1.0	0.02	-0.27	0.05
9.227	-0.06	0.03	1.0	0.02	-0.27	0.05
9.229	-0.06	0.03	1.0	0.0	-0.3	-0.01
9.234	-0.07	0.03	0.99	0.0	-0.3	-0.01
9.236	-0.07	0.03	0.99	-0.02	-0.33	-0.07
9.245	-0.07	0.02	0.99	-0.02	-0.33	-0.07
9.247	-0.07	0.02	0.99	-0.07	-0.38	-0.06
9.254	-0.08	0.01	0.99	-0.07	-0.38	-0.06
9.255	-0.08	0.01	0.99	-0.15	-0.41	-0.06
9.264	-0.08	0.01	1.0	-0.15	-0.41	-0.06
9.265	-0.08	0.01	1.0	-0.18	-0.44	0.02
9.274	-0.08	0.01	1.0	-0.18	-0.44	0.02
9.276	-0.08	0.01	1.0	-0.19	-0.46	0.07
9.293	-0.08	0.0	1.01	-0.19	-0.46	0.07
9.294	-0.08	0.0	1.01	-0.17	-0.47	0.13
9.297	-0.08	0.0	1.01	-0.17	-0.47	0.13
9.298	-0.08	0.0	1.01	-0.18	-0.45	0.16
9.314	-0.09	0.0	1.02	-0.18	-0.45	0.16
9.316	-0.09	0.0	1.02	-0.22	-0.36	0.22
9.324	-0.09	0.01	1.02	-0.22	-0.36	0.22
9.325	-0.09	0.01	1.02	-0.24	-0.32	0.23
9.334	-0.1	0.01	1.02	-0.24	-0.32	0.23
9.335	-0.1	0.01	1.02	-0.25	-0.28	0.24
9.344	-0.1	0.01	1.02	-0.25	-0.28	0.24
9.345	-0.1	0.01	1.02	-0.22	-0.25	0.21
9.354	-0.09	0.01	1.01	-0.22	-0.25	0.21
9.355	-0.09	0.01	1.01	-0.2	-0.22	0.17
9.364	-0.09	0.01	1.01	-0.2	-0.22	0.17
9.366	-0.09	0.01	1.01	-0.17	-0.2	0.1
9.374	-0.09	0.01	1.0	-0.17	-0.2	0.1
9.375	-0.09	0.01	1.0	-0.14	-0.16	0.03
9.384	-0.09	0.02	1.0	-0.14	-0.16	0.03
9.385	-0.09	0.02	1.0	-0.13	-0.13	0.03
9.405	-0.09	0.02	0.99	-0.13	-0.13	0.03
9.406	-0.09	0.02	0.99	-0.12	-0.09	-0.03
9.407	-0.09	0.02	1.0	-0.12	-0.09	-0.03
9.409	-0.09	0.02	1.0	-0.12	-0.07	0.0
9.425	-0.09	0.03	1.0	-0.12	-0.07	0.0
9.427	-0.09	0.03	1.0	-0.13	-0.02	0.02
9.427	-0.09	0.03	1.0	-0.13	-0.02	0.02
9.428	-0.09	0.03	1.0	-0.09	0.03	0.08
9.434	-0.08	0.04	1.0	-0.09	0.03	0.08
9.435	-0.08	0.04	1.0	-0.06	0.07	0.06
9.446	-0.08	0.04	1.01	-0.06	0.07	0.06
9.447	-0.08	0.04	1.01	-0.05	0.12	0.08
9.454	-0.08	0.04	1.01	-0.05	0.12	0.08
9.455	-0.08	0.04	1.01	-0.04	0.14	0.11
9.465	-0.08	0.05	1.01	-0.04	0.14	0.11
9.466	-0.08	0.05	1.01	-0.03	0.15	0.15
9.474	-0.08	0.05	1.01	-0.03	0.15	0.15
9.475	-0.08	0.05	1.01	-0.04	0.14	0.15
9.491	-0.08	0.05	1.01	-0.04	0.14	0.15
9.494	-0.08	0.05	1.01	-0.01	0.15	0.14
9.496	-0.08	0.04	1.01	-0.01	0.15	0.14
9.497	-0.08	0.04	1.01	0.02	0.12	0.11
9.504	-0.08	0.04	1.01	0.02	0.12	0.11
9.505	-0.08	0.04	1.01	0.01	0.09	0.1
9.514	-0.08	0.04	1.0	0.01	0.09	0.1
9.516	-0.08	0.04	1.0	0.0	0.06	0.07
9.524	-0.08	0.04	1.0	0.0	0.06	0.07
9.526	-0.08	0.04	1.0	-0.01	0.04	0.07
9.534	-0.09	0.03	1.0	-0.01	0.04	0.07
9.536	-0.09	0.03	1.0	-0.02	0.0	0.05
9.544	-0.08	0.03	1.0	-0.02	0.0	0.05
9.546	-0.08	0.03	1.0	0.0	-0.01	0.03
9.554	-0.08	0.03	1.0	0.0	-0.01	0.03
9.555	-0.08	0.03	1.0	0.02	-0.04	0.01
9.564	-0.09	0.03	0.99	0.02	-0.04	0.01
9.566	-0.09	0.03	0.99	0.0	-0.06	-0.07
9.574	-0.08	0.02	0.99	0.0	-0.06	-0.07
9.576	-0.08	0.02	0.99	0.02	-0.08	-0.09
9.585	-0.08	0.02	0.99	0.02	-0.08	-0.09
9.586	-0.08	0.02	0.99	0.05	-0.06	-0.1
9.606	-0.08	0.02	0.99	0.05	-0.06	-0.1
9.608	-0.08	0.02	0.99	0.05	-0.07	-0.1
9.609	-0.08	0.02	0.99	0.05	-0.07	-0.1
9.61	-0.08	0.02	0.99	0.04	-0.06	-0.09
9.63	-0.09	0.02	0.99	0.04	-0.06	-0.09
9.631	-0.09	0.02	0.99	0.0	-0.1	-0.04
9.632	-0.09	0.02	1.0	0.0	-0.1	-0.04
9.633	-0.09	0.02	1.0	0.0	-0.1	0.0
9.634	-0.09	0.02	1.0	0.0	-0.1	0.0
9.635	-0.09	0.02	1.0	-0.03	-0.12	0.02
9.646	-0.09	0.01	1.0	-0.03	-0.12	0.02
9.648	-0.09	0.01	1.0	-0.04	-0.13	0.07
9.654	-0.09	0.02	1.0	-0.04	-0.13	0.07
9.655	-0.09	0.02	1.0	-0.04	-0.12	0.05
9.665	-0.09	0.01	1.01	-0.04	-0.12	0.05
9.666	-0.09	0.01	1.01	-0.02	-0.13	0.13
9.674	-0.09	0.01	1.0	-0.02	-0.13	0.13
9.676	-0.09	0.01	1.0	-0.01	-0.12	0.08
9.69	-0.09	0.01	1.0	-0.01	-0.12	0.08
9.692	-0.09	0.01	1.0	-0.03	-0.14	0.07
9.694	-0.09	0.01	1.0	-0.03	-0.14	0.07
9.695	-0.09	0.01	1.0	-0.02	-0.13	0.03
9.704	-0.09	0.01	1.0	-0.02	-0.13	0.03
9.705	-0.09	0.01	1.0	0.0	-0.13	0.01
9.716	-0.09	0.01	0.99	0.0	-0.13	0.01
9.717	-0.09	0.01	0.99	0.0	-0.13	-0.02
9.725	-0.09	0.01	0.99	0.0	-0.13	-0.02
9.726	-0.09	0.01	0.99	0.0	-0.12	-0.02
9.734	-0.09	0.01	1.0	0.0	-0.12	-0.02
9.736	-0.09	0.01	1.0	0.0	-0.09	0.0
9.746	-0.09	0.01	1.0	0.0	-0.09	0.0
9.747	-0.09	0.01	1.0	0.0	-0.09	0.02
9.754	-0.09	0.01	1.0	0.0	-0.09	0.02
9.755	-0.09	0.01	1.0	-0.01	-0.07	0.06
9.764	-0.09	0.01	1.0	-0.01	-0.07	0.06
9.765	-0.09	0.01	1.0	-0.03	-0.06	0.07
9.774	-0.09	0.02	1.0	-0.03	-0.06	0.07
9.775	-0.09	0.02	1.0	-0.05	-0.03	0.04
9.784	-0.09	0.02	1.01	-0.05	-0.03	0.04
9.785	-0.09	0.02	1.01	-0.04	-0.04	0.09
9.805	-0.1	0.02	1.0	-0.04	-0.04	0.09
9.806	-0.1	0.02	1.0	-0.05	-0.02	0.07
9.808	-0.09	0.02	1.0	-0.05	-0.02	0.07
9.809	-0.09	0.02	1.0	-0.03	-0.01	0.07
9.826	-0.09	0.02	1.0	-0.03	-0.01	0.07
9.827	-0.09	0.02	1.0	-0.04	-0.01	0.04
9.829	-0.1	0.01	1.0	-0.04	-0.01	0.04
9.829	-0.1	0.01	1.0	-0.05	-0.03	0.02
9.834	-0.1	0.01	1.0	-0.05	-0.03	0.02
9.836	-0.1	0.01	1.0	-0.05	-0.05	0.01
9.844	-0.1	0.01	1.0	-0.05	-0.05	0.01
9.846	-0.1	0.01	1.0	-0.07	-0.08	0.0
9.854	-0.1	0.0	0.99	-0.07	-0.08	0.0
9.856	-0.1	0.0	0.99	-0.08	-0.11	-0.02
9.864	-0.1	0.0	0.99	-0.08	-0.11	-0.02
9.866	-0.1	0.0	0.99	-0.07	-0.11	-0.04
9.878	-0.1	0.0	0.99	-0.07	-0.11	-0.04
9.881	-0.1	0.0	0.99	-0.07	-0.11	-0.07
9.884	-0.1	0.0	0.99	-0.07	-0.11	-0.07
9.885	-0.1	0.0	0.99	-0.05	-0.12	-0.07
9.906	-0.1	0.0	0.99	-0.05	-0.12	-0.07
9.909	-0.1	0.0	0.99	-0.03	-0.11	-0.08
9.91	-0.09	0.0	0.99	-0.03	-0.11	-0.08
9.911	-0.09	0.0	0.99	0.01	-0.1	-0.06
9.915	-0.09	0.0	0.99	0.01	-0.1	-0.06
9.916	-0.09	0.0	0.99	0.01	-0.1	-0.03
9.93	-0.1	0.0	0.99	0.01	-0.1	-0.03
9.932	-0.1	0.0	0.99	0.0	-0.09	-0.02
9.935	-0.1	0.0	1.0	0.0	-0.09	-0.02
9.936	-0.1	0.0	1.0	-0.01	-0.07	0.01
9.944	-0.1	0.0	1.0	-0.01	-0.07	0.01
9.946	-0.1	0.0	1.0	-0.01	-0.08	0.04
9.954	-0.1	0.0	1.0	-0.01	-0.08	0.04
9.956	-0.1	0.0	1.0	0.0	-0.07	0.06
9.964	-0.09	0.0	1.0	0.0	-0.07	0.06
9.966	-0.09	0.0	1.0	0.01	-0.09	0.08
9.974	-0.09	0.0	1.01	0.01	-0.09	0.08
9.975	-0.09	0.0	1.01	0.02	-0.1	0.11
9.985	-0.09	0.0	1.01	0.02	-0.1	0.11
9.985	-0.09	0.0	1.01	0.01	-0.12	0.15
10.004	-0.09	-0.01	1.01	0.01	-0.12	0.15
10.006	-0.09	-0.01	1.01	0.0	-0.11	0.16
10.027	-0.09	-0.01	1.01	0.0	-0.11	0.16
10.029	-0.09	-0.01	1.01	0.03	-0.11	0.11
10.03	-0.09	0.0	1.0	0.03	-0.11	0.11
10.031	-0.09	0.0	1.0	0.04	-0.09	0.03
10.034	-0.09	0.0	0.99	0.04	-0.09	0.03
10.035	-0.09	0.0	0.99	0.05	-0.06	-0.04
10.044	-0.09	0.0	0.99	0.05	-0.06	-0.04
10.046	-0.09	0.0	0.99	0.05	-0.02	-0.07
10.054	-0.09	0.0	0.99	0.05	-0.02	-0.07
10.055	-0.09	0.0	0.99	0.06	0.0	-0.1
10.064	-0.09	0.01	0.98	0.06	0.0	-0.1
10.065	-0.09	0.01	0.98	0.05	0.03	-0.11
10.076	-0.09	0.01	0.99	0.05	0.03	-0.11
10.079	-0.09	0.01	0.99	0.05	0.06	-0.08
10.084	-0.09	0.01	0.99	0.05	0.06	-0.08
10.085	-0.09	0.01	0.99	0.03	0.04	-0.06
10.094	-0.09	0.01	1.0	0.03	0.04	-0.06
10.096	-0.09	0.01	1.0	0.01	0.03	0.0
10.104	-0.1	0.0	1.0	0.01	0.03	0.0
10.106	-0.1	0.0	1.0	-0.01	0.0	0.02
10.124	-0.1	0.0	1.0	-0.01	0.0	0.02
10.126	-0.1	0.0	1.0	-0.01	0.0	0.03
10.127	-0.1	0.0	1.0	-0.01	0.0	0.03
10.128	-0.1	0.0	1.0	-0.02	-0.01	0.04
10.134	-0.1	0.0	1.0	-0.02	-0.01	0.04
10.135	-0.1	0.0	1.0	-0.01	-0.02	0.05
10.149	-0.1	0.0	1.0	-0.01	-0.02	0.05
10.15	-0.1	0.0	1.0	-0.01	-0.05	0.06
10.154	-0.1	-0.01	1.0	-0.01	-0.05	0.06
10.155	-0.1	-0.01	1.0	-0.01	-0.06	0.05
10.166	-0.1	-0.01	1.0	-0.01	-0.06	0.05
10.168	-0.1	-0.01	1.0	-0.01	-0.06	0.05
10.177	-0.09	-0.01	1.0	-0.01	-0.06	0.05
10.178	-0.09	-0.01	1.0	0.0	-0.06	0.0
10.184	-0.09	0.0	1.0	0.0	-0.06	0.0
10.185	-0.09	0.0	1.0	0.02	-0.05	-0.01
10.204	-0.09	-0.01	0.99	0.02	-0.05	-0.01
10.206	-0.09	-0.01	0.99	0.02	-0.05	-0.03
10.209	-0.09	0.0	0.99	0.02	-0.05	-0.03
10.209	-0.09	0.0	0.99	0.03	-0.03	-0.06
10.225	-0.09	0.0	0.99	0.03	-0.03	-0.06
10.226	-0.09	0.0	0.99	0.03	-0.04	-0.04
10.227	-0.09	-0.01	0.99	0.03	-0.04	-0.04
10.228	-0.09	-0.01	0.99	0.01	-0.05	-0.03
10.234	-0.09	-0.01	0.99	0.01	-0.05	-0.03
10.235	-0.09	-0.01	0.99	0.01	-0.05	-0.02
10.244	-0.09	-0.01	1.0	0.01	-0.05	-0.02
10.246	-0.09	-0.01	1.0	0.01	-0.05	0.0
10.254	-0.09	-0.01	1.0	0.01	-0.05	0.0
10.254	-0.09	-0.01	1.0	0.03	-0.04	0.04
10.264	-0.09	0.0	1.0	0.03	-0.04	0.04
10.266	-0.09	0.0	1.0	0.04	-0.03	0.06
10.276	-0.09	0.0	1.0	0.04	-0.03	0.06
10.277	-0.09	0.0	1.0	0.05	-0.02	0.06
10.284	-0.09	0.0	1.0	0.05	-0.02	0.06
10.285	-0.09	0.0	1.0	0.04	0.0	0.06
10.295	-0.09	0.0	1.0	0.04	0.0	0.06
10.297	-0.09	0.0	1.0	0.03	0.02	0.04
10.304	-0.09	0.0	1.0	0.03	0.02	0.04
10.305	-0.09	0.0	1.0	0.03	0.04	0.03
10.322	-0.09	0.0	1.0	0.03	0.04	0.03
10.325	-0.09	0.0	1.0	0.04	0.05	0.01
10.326	-0.09	0.0	1.0	0.04	0.05	0.01
10.327	-0.09	0.0	1.0	0.04	0.04	0.0
10.342	-0.08	0.0	0.99	0.04	0.04	0.0
10.344	-0.08	0.0	0.99	0.05	0.04	-0.03
10.345	-0.09	0.0	0.99	0.05	0.04	-0.03
10.346	-0.09	0.0	0.99	0.05	0.03	-0.04
10.354	-0.09	0.0	1.0	0.05	0.03	-0.04
10.355	-0.09	0.0	1.0	0.04	0.02	-0.01
10.364	-0.09	0.0	1.0	0.04	0.02	-0.01
10.366	-0.09	0.0	1.0	0.01	0.0	0.0
10.379	-0.09	0.0	1.0	0.01	0.0	0.0
10.381	-0.09	0.0	1.0	-0.01	0.01	0.02
10.384	-0.09	0.0	1.0	-0.01	0.01	0.02
10.385	-0.09	0.0	1.0	-0.03	0.0	0.04
10.394	-0.09	-0.01	1.0	-0.03	0.0	0.04
10.395	-0.09	-0.01	1.0	-0.06	-0.02	0.04
10.404	-0.1	-0.01	1.0	-0.06	-0.02	0.04
10.405	-0.1	-0.01	1.0	-0.08	-0.04	0.05
10.419	-0.1	-0.01	1.0	-0.08	-0.04	0.05
10.421	-0.1	-0.01	1.0	-0.09	-0.04	0.08
10.441	-0.1	-0.01	1.01	-0.09	-0.04	0.08
10.442	-0.1	-0.01	1.01	-0.08	-0.03	0.1
10.445	-0.09	-0.01	1.01	-0.08	-0.03	0.1
10.446	-0.09	-0.01	1.01	-0.05	-0.01	0.13
10.448	-0.09	-0.01	1.01	-0.05	-0.01	0.13
10.449	-0.09	-0.01	1.01	-0.02	0.01	0.15
10.453	-0.09	0.0	1.01	-0.02	0.01	0.15
10.454	-0.09	0.0	1.01	0.01	0.04	0.14
10.464	-0.09	0.0	1.01	0.01	0.04	0.14
10.465	-0.09	0.0	1.01	0.02	0.07	0.12
10.476	-0.08	0.0	1.01	0.02	0.07	0.12
10.477	-0.08	0.0	1.01	0.03	0.09	0.08
10.484	-0.08	0.0	1.0	0.03	0.09	0.08
10.485	-0.08	0.0	1.0	0.04	0.11	0.05
10.495	-0.08	0.0	1.0	0.04	0.11	0.05
10.497	-0.08	0.0	1.0	0.05	0.09	0.03
10.504	-0.08	0.0	1.0	0.05	0.09	0.03
10.505	-0.08	0.0	1.0	0.06	0.07	0.05
10.521	-0.08	-0.01	1.01	0.06	0.07	0.05
10.524	-0.08	-0.01	1.01	0.04	0.01	0.1
10.525	-0.08	-0.01	1.01	0.04	0.01	0.1
10.526	-0.08	-0.01	1.01	0.04	-0.01	0.17
10.534	-0.08	-0.01	1.02	0.04	-0.01	0.17
10.535	-0.08	-0.01	1.02	0.03	-0.03	0.25
10.544	-0.09	-0.01	1.03	0.03	-0.03	0.25
10.545	-0.09	-0.01	1.03	0.01	-0.03	0.29
10.553	-0.09	-0.01	1.02	0.01	-0.03	0.29
10.554	-0.09	-0.01	1.02	-0.01	-0.01	0.27
10.564	-0.09	-0.01	1.02	-0.01	-0.01	0.27
10.566	-0.09	-0.01	1.02	-0.03	0.02	0.22
10.578	-0.09	0.0	1.01	-0.03	0.02	0.22
10.58	-0.09	0.0	1.01	-0.03	0.06	0.15
10.584	-0.09	0.0	1.01	-0.03	0.06	0.15
10.585	-0.09	0.0	1.01	-0.03	0.07	0.12
10.594	-0.09	-0.01	1.01	-0.03	0.07	0.12
10.596	-0.09	-0.01	1.01	-0.02	0.03	0.08
10.604	-0.09	-0.01	1.0	-0.02	0.03	0.08
10.606	-0.09	-0.01	1.0	-0.01	0.0	0.08
10.62	-0.09	-0.01	1.0	-0.01	0.0	0.08
10.622	-0.09	-0.01	1.0	0.0	-0.02	0.07
10.624	-0.09	-0.01	1.0	0.0	-0.02	0.07
10.625	-0.09	-0.01	1.0	0.0	-0.04	0.08
10.642	-0.09	-0.02	1.01	0.0	-0.04	0.08
10.645	-0.09	-0.02	1.01	0.0	-0.07	0.1
10.646	-0.09	-0.02	1.01	0.0	-0.07	0.1
10.646	-0.09	-0.02	1.01	-0.01	-0.1	0.12
10.654	-0.09	-0.02	1.01	-0.01	-0.1	0.12
10.655	-0.09	-0.02	1.01	-0.01	-0.12	0.14
10.664	-0.09	-0.02	1.01	-0.01	-0.12	0.14
10.666	-0.09	-0.02	1.01	0.0	-0.11	0.16
10.675	-0.09	-0.02	1.01	0.0	-0.11	0.16
10.677	-0.09	-0.02	1.01	0.01	-0.08	0.16
10.684	-0.09	-0.02	1.01	0.01	-0.08	0.16
10.685	-0.09	-0.02	1.01	0.03	-0.05	0.14
10.693	-0.09	-0.02	1.0	0.03	-0.05	0.14
10.695	-0.09	-0.02	1.0	0.06	-0.02	0.09
10.704	-0.09	-0.01	1.0	0.06	-0.02	0.09
10.705	-0.09	-0.01	1.0	0.07	0.02	0.05
10.719	-0.09	-0.01	1.0	0.07	0.02	0.05
10.721	-0.09	-0.01	1.0	0.08	0.02	0.03
10.724	-0.09	-0.01	1.0	0.08	0.02	0.03
10.725	-0.09	-0.01	1.0	0.09	0.03	0.0
10.741	-0.09	-0.01	0.99	0.09	0.03	0.0
10.742	-0.09	-0.01	0.99	0.1	0.01	-0.02
10.744	-0.09	-0.01	0.99	0.1	0.01	-0.02
10.745	-0.09	-0.01	0.99	0.1	0.0	-0.05
10.754	-0.09	-0.01	0.99	0.1	0.0	-0.05
10.755	-0.09	-0.01	0.99	0.1	0.0	-0.08
10.764	-0.09	-0.02	0.99	0.1	0.0	-0.08
10.765	-0.09	-0.02	0.99	0.1	-0.02	-0.09
10.775	-0.09	-0.02	0.98	0.1	-0.02	-0.09
10.777	-0.09	-0.02	0.98	0.1	-0.03	-0.11
10.784	-0.09	-0.02	0.98	0.1	-0.03	-0.11
10.785	-0.09	-0.02	0.98	0.11	-0.02	-0.13
10.794	-0.09	-0.02	0.98	0.11	-0.02	-0.13
10.795	-0.09	-0.02	0.98	0.12	0.0	-0.16
10.804	-0.09	-0.01	0.98	0.12	0.0	-0.16
10.805	-0.09	-0.01	0.98	0.13	0.02	-0.19
10.819	-0.09	-0.01	0.97	0.13	0.02	-0.19
10.821	-0.09	-0.01	0.97	0.15	0.04	-0.23
10.84	-0.09	-0.01	0.97	0.15	0.04	-0.23
10.841	-0.09	-0.01	0.97	0.14	0.05	-0.23
10.842	-0.09	-0.01	0.98	0.14	0.05	-0.23
10.843	-0.09	-0.01	0.98	0.12	0.05	-0.19
10.845	-0.09	-0.01	0.98	0.12	0.05	-0.19
10.846	-0.09	-0.01	0.98	0.11	0.05	-0.15
10.854	-0.09	-0.01	0.98	0.11	0.05	-0.15
10.855	-0.09	-0.01	0.98	0.09	0.06	-0.11
10.864	-0.09	-0.01	0.99	0.09	0.06	-0.11
10.866	-0.09	-0.01	0.99	0.09	0.05	-0.1
10.875	-0.09	-0.01	0.99	0.09	0.05	-0.1
10.877	-0.09	-0.01	0.99	0.09	0.03	-0.1
10.884	-0.09	-0.02	0.98	0.09	0.03	-0.1
10.885	-0.09	-0.02	0.98	0.09	0.02	-0.11
10.894	-0.09	-0.02	0.99	0.09	0.02	-0.11
10.896	-0.09	-0.02	0.99	0.09	-0.01	-0.09
10.904	-0.09	-0.02	0.99	0.09	-0.01	-0.09
10.905	-0.09	-0.02	0.99	0.08	-0.04	-0.09
10.919	-0.09	-0.03	0.99	0.08	-0.04	-0.09
10.921	-0.09	-0.03	0.99	0.09	-0.09	-0.07
10.94	-0.09	-0.03	0.99	0.09	-0.09	-0.07
10.942	-0.09	-0.03	0.99	0.06	-0.1	-0.04
10.943	-0.09	-0.03	1.0	0.06	-0.1	-0.04
10.945	-0.09	-0.03	1.0	0.05	-0.11	0.0
10.946	-0.09	-0.03	1.0	0.05	-0.11	0.0
10.947	-0.09	-0.03	1.0	0.03	-0.13	0.05
10.954	-0.09	-0.03	1.01	0.03	-0.13	0.05
10.955	-0.09	-0.03	1.01	0.01	-0.15	0.11
10.964	-0.09	-0.03	1.01	0.01	-0.15	0.11
10.967	-0.09	-0.03	1.01	-0.01	-0.14	0.16
10.975	-0.09	-0.04	1.02	-0.01	-0.14	0.16
10.977	-0.09	-0.04	1.02	0.0	-0.15	0.19
10.984	-0.09	-0.04	1.02	0.0	-0.15	0.19
10.985	-0.09	-0.04	1.02	0.0	-0.13	0.19
10.995	-0.09	-0.04	1.02	0.0	-0.13	0.19
10.997	-0.09	-0.04	1.02	0.0	-0.13	0.18
11.004	-0.09	-0.03	1.01	0.0	-0.13	0.18
11.005	-0.09	-0.03	1.01	0.01	-0.12	0.15
11.021	-0.09	-0.03	1.01	0.01	-0.12	0.15
11.024	-0.09	-0.03	1.01	0.0	-0.11	0.12
11.026	-0.09	-0.03	1.0	0.0	-0.11	0.12
11.027	-0.09	-0.03	1.0	-0.03	-0.1	0.07
11.034	-0.09	-0.03	1.0	-0.03	-0.1	0.07
11.036	-0.09	-0.03	1.0	-0.04	-0.1	0.03
11.045	-0.09	-0.03	1.0	-0.04	-0.1	0.03
11.046	-0.09	-0.03	1.0	-0.05	-0.08	0.02
11.054	-0.09	-0.03	1.0	-0.05	-0.08	0.02
11.055	-0.09	-0.03	1.0	-0.06	-0.08	0.04
11.064	-0.09	-0.03	1.0	-0.06	-0.08	0.04
11.066	-0.09	-0.03	1.0	-0.07	-0.07	0.05
11.074	-0.09	-0.03	1.0	-0.07	-0.07	0.05
11.08	-0.09	-0.03	1.0	-0.09	-0.05	0.08
11.083	-0.1	-0.03	1.01	-0.09	-0.05	0.08
11.085	-0.1	-0.03	1.01	-0.1	-0.03	0.1
11.095	-0.1	-0.03	1.01	-0.1	-0.03	0.1
11.096	-0.1	-0.03	1.01	-0.12	-0.01	0.11
11.103	-0.1	-0.03	1.0	-0.12	-0.01	0.11
11.105	-0.1	-0.03	1.0	-0.14	0.0	0.08
11.12	-0.1	-0.02	1.0	-0.14	0.0	0.08
11.123	-0.1	-0.02	1.0	-0.14	0.02	0.02
11.125	-0.1	-0.02	0.99	-0.14	0.02	0.02
11.127	-0.1	-0.02	0.99	-0.13	0.02	-0.04
11.14	-0.1	-0.02	0.99	-0.13	0.02	-0.04
11.142	-0.1	-0.02	0.99	-0.14	0.03	-0.07
11.144	-0.1	-0.02	0.99	-0.14	0.03	-0.07
11.145	-0.1	-0.02	0.99	-0.14	0.03	-0.06
11.153	-0.1	-0.02	0.99	-0.14	0.03	-0.06
11.154	-0.1	-0.02	0.99	-0.15	0.04	-0.05
11.164	-0.1	-0.02	0.99	-0.15	0.04	-0.05
11.165	-0.1	-0.02	0.99	-0.15	0.04	-0.03
11.176	-0.1	-0.02	0.99	-0.15	0.04	-0.03
11.178	-0.1	-0.02	0.99	-0.15	0.05	-0.04
11.184	-0.1	-0.02	0.99	-0.15	0.05	-0.04
11.185	-0.1	-0.02	0.99	-0.15	0.04	-0.03
11.194	-0.1	-0.02	0.99	-0.15	0.04	-0.03
11.194	-0.1	-0.02	0.99	-0.16	0.05	-0.02
11.204	-0.1	-0.02	1.0	-0.16	0.05	-0.02
11.206	-0.1	-0.02	1.0	-0.14	0.06	0.02
11.219	-0.1	-0.02	1.0	-0.14	0.06	0.02
11.22	-0.1	-0.02	1.0	-0.13	0.07	0.08
11.235	-0.1	-0.02	1.01	-0.13	0.07	0.08
11.237	-0.1	-0.02	1.01	-0.11	0.08	0.11
11.238	-0.09	-0.02	1.01	-0.11	0.08	0.11
11.239	-0.09	-0.02	1.01	-0.09	0.07	0.15
11.246	-0.09	-0.02	1.01	-0.09	0.07	0.15
11.247	-0.09	-0.02	1.01	-0.08	0.07	0.15
11.254	-0.09	-0.02	1.01	-0.08	0.07	0.15
11.255	-0.09	-0.02	1.01	-0.08	0.06	0.16
11.264	-0.09	-0.02	1.01	-0.08	0.06	0.16
11.266	-0.09	-0.02	1.01	-0.07	0.05	0.16
11.274	-0.09	-0.02	1.01	-0.07	0.05	0.16
11.277	-0.09	-0.02	1.01	-0.07	0.03	0.11
11.284	-0.09	-0.02	1.01	-0.07	0.03	0.11
11.285	-0.09	-0.02	1.01	-0.06	0.0	0.08
11.3	-0.09	-0.03	1.0	-0.06	0.0	0.08
11.301	-0.09	-0.03	1.0	-0.05	-0.01	0.06
11.305	-0.09	-0.03	1.0	-0.05	-0.01	0.06
11.306	-0.09	-0.03	1.0	-0.05	-0.03	0.03
11.318	-0.09	-0.03	1.0	-0.05	-0.03	0.03
11.32	-0.09	-0.03	1.0	-0.05	-0.04	0.01
11.329	-0.09	-0.03	1.0	-0.05	-0.04	0.01
11.331	-0.09	-0.03	1.0	-0.06	-0.02	0.0
11.334	-0.09	-0.03	1.0	-0.06	-0.02	0.0
11.335	-0.09	-0.03	1.0	-0.06	-0.02	0.02
11.344	-0.09	-0.03	1.0	-0.06	-0.02	0.02
11.346	-0.09	-0.03	1.0	-0.05	-0.1	-0.01
11.354	-0.09	-0.03	0.99	-0.05	-0.1	-0.01
11.355	-0.09	-0.03	0.99	-0.09	-0.06	-0.02
11.364	-0.09	-0.03	0.99	-0.09	-0.06	-0.02
11.366	-0.09	-0.03	0.99	-0.06	-0.03	-0.06
11.374	-0.09	-0.03	0.99	-0.06	-0.03	-0.06
11.376	-0.09	-0.03	0.99	-0.11	-0.09	-0.08
11.384	-0.09	-0.03	0.99	-0.11	-0.09	-0.08
11.385	-0.09	-0.03	0.99	-0.1	-0.03	-0.05
11.395	-0.09	-0.03	0.99	-0.1	-0.03	-0.05
11.396	-0.09	-0.03	0.99	-0.07	-0.06	-0.03
11.404	-0.09	-0.04	1.0	-0.07	-0.06	-0.03
11.406	-0.09	-0.04	1.0	-0.1	-0.13	0.02
11.421	-0.09	-0.03	1.01	-0.1	-0.13	0.02
11.424	-0.09	-0.03	1.01	-0.08	-0.03	0.09
11.425	-0.09	-0.01	1.0	-0.08	-0.03	0.09
11.426	-0.09	-0.01	1.0	-0.04	0.17	0.07
11.433	-0.08	-0.01	1.01	-0.04	0.17	0.07
11.434	-0.08	-0.01	1.01	-0.01	0.12	0.09
11.443	-0.08	-0.04	1.01	-0.01	0.12	0.09
11.445	-0.08	-0.04	1.01	-0.04	-0.12	0.1
11.453	-0.08	-0.02	1.0	-0.04	-0.12	0.1
11.456	-0.08	-0.02	1.0	0.03	0.09	0.05
11.464	-0.08	-0.02	1.01	0.03	0.09	0.05
11.465	-0.08	-0.02	1.01	0.05	0.08	0.16
11.473	-0.07	-0.02	1.01	0.05	0.08	0.16
11.474	-0.07	-0.02	1.01	0.08	0.06	0.13
11.484	-0.07	-0.03	1.01	0.08	0.06	0.13
11.485	-0.07	-0.03	1.01	0.07	-0.02	0.11
11.505	-0.06	-0.03	1.01	0.07	-0.02	0.11
11.506	-0.06	-0.03	1.01	0.15	-0.07	0.11
11.508	-0.06	-0.03	1.01	0.15	-0.07	0.11
11.509	-0.06	-0.03	1.01	0.14	-0.03	0.15
11.513	-0.06	-0.03	1.01	0.14	-0.03	0.15
11.514	-0.06	-0.03	1.01	0.14	-0.02	0.14
11.524	-0.06	-0.02	1.01	0.14	-0.02	0.14
11.526	-0.06	-0.02	1.01	0.14	0.02	0.11
11.533	-0.06	-0.01	1.01	0.14	0.02	0.11
11.534	-0.06	-0.01	1.01	0.13	0.12	0.15
11.543	-0.06	-0.01	1.01	0.13	0.12	0.15
11.545	-0.06	-0.01	1.01	0.13	0.14	0.14
11.554	-0.06	-0.02	1.01	0.13	0.14	0.14
11.555	-0.06	-0.02	1.01	0.1	0.06	0.08
11.564	-0.06	-0.02	1.01	0.1	0.06	0.08
11.565	-0.06	-0.02	1.01	0.12	0.06	0.08
11.574	-0.07	-0.02	1.02	0.12	0.06	0.08
11.575	-0.07	-0.02	1.02	0.07	0.02	0.17
11.584	-0.06	-0.03	0.99	0.07	0.02	0.17
11.584	-0.06	-0.03	0.99	0.13	-0.13	-0.03
11.593	-0.05	-0.02	0.99	0.13	-0.13	-0.03
11.594	-0.05	-0.02	0.99	0.27	0.02	-0.12
11.604	-0.05	-0.02	0.99	0.27	0.02	-0.12
11.605	-0.05	-0.02	0.99	0.28	-0.02	-0.08
11.622	-0.04	-0.02	0.99	0.28	-0.02	-0.08
11.625	-0.04	-0.02	0.99	0.29	-0.01	-0.05
11.626	-0.07	-0.03	1.0	0.29	-0.01	-0.05
11.627	-0.07	-0.03	1.0	0.0	-0.09	0.06
11.634	-0.06	-0.1	1.01	0.0	-0.09	0.06
11.635	-0.06	-0.1	1.01	0.17	-0.75	0.08
11.644	-0.01	-0.05	1.0	0.17	-0.75	0.08
11.646	-0.01	-0.05	1.0	0.66	-0.3	0.03
11.654	-0.06	-0.03	1.02	0.66	-0.3	0.03
11.655	-0.06	-0.03	1.02	0.14	-0.08	0.19
11.664	-0.05	-0.07	0.99	0.14	-0.08	0.19
11.666	-0.05	-0.07	0.99	0.24	-0.52	-0.04
11.674	-0.03	-0.08	1.02	0.24	-0.52	-0.04
11.676	-0.03	-0.08	1.02	0.46	-0.59	0.18
11.683	-0.01	0.1	0.93	0.46	-0.59	0.18
11.684	-0.01	0.1	0.93	0.65	1.18	-0.7
11.693	0.01	0.02	0.98	0.65	1.18	-0.7
11.694	0.01	0.02	0.98	0.83	0.43	-0.18
11.716	-0.01	0.06	0.88	0.83	0.43	-0.18
11.717	-0.01	0.06	0.88	0.66	0.78	-1.18
11.718	-0.03	0.18	0.83	0.66	0.78	-1.18
11.719	-0.03	0.18	0.83	0.38	1.96	-1.61
11.733	-0.04	0.19	1.02	0.38	1.96	-1.61
11.734	-0.04	0.19	1.02	0.25	2.08	0.17
11.735	-0.1	0.09	1.11	0.25	2.08	0.17
11.736	-0.1	0.09	1.11	-0.31	1.12	1.14
11.743	-0.13	0.07	1.1	-0.31	1.12	1.14
11.745	-0.13	0.07	1.1	-0.69	0.89	1.01
11.754	-0.13	0.12	1.09	-0.69	0.89	1.01
11.754	-0.13	0.12	1.09	-0.69	1.4	0.91
11.763	-0.12	0.13	1.09	-0.69	1.4	0.91
11.765	-0.12	0.13	1.09	-0.67	1.45	0.9
11.774	-0.09	0.06	1.05	-0.67	1.45	0.9
11.776	-0.09	0.06	1.05	-0.33	0.7	0.51
11.786	-0.08	-0.02	0.98	-0.33	0.7	0.51
11.787	-0.08	-0.02	0.98	-0.24	-0.07	-0.19
11.795	-0.06	-0.09	0.94	-0.24	-0.07	-0.19
11.797	-0.06	-0.09	0.94	-0.03	-0.81	-0.6
11.803	-0.06	-0.14	0.93	-0.03	-0.81	-0.6
11.805	-0.06	-0.14	0.93	0.01	-1.31	-0.71
11.817	-0.07	-0.15	0.96	0.01	-1.31	-0.71
11.819	-0.07	-0.15	0.96	-0.02	-1.41	-0.34
11.841	-0.05	-0.14	1.01	-0.02	-1.41	-0.34
11.842	-0.05	-0.14	1.01	0.11	-1.33	0.16
11.843	-0.05	-0.08	1.07	0.11	-1.33	0.16
11.844	-0.05	-0.08	1.07	0.18	-0.71	0.74
11.845	-0.05	-0.06	1.11	0.18	-0.71	0.74
11.846	-0.05	-0.06	1.11	0.17	-0.49	1.07
11.854	-0.04	-0.05	1.11	0.17	-0.49	1.07
11.855	-0.04	-0.05	1.11	0.23	-0.44	1.07
11.864	-0.03	-0.04	1.09	0.23	-0.44	1.07
11.865	-0.03	-0.04	1.09	0.31	-0.28	0.89
11.874	-0.05	-0.04	1.03	0.31	-0.28	0.89
11.876	-0.05	-0.04	1.03	0.09	-0.32	0.3
11.883	-0.05	-0.03	0.98	0.09	-0.32	0.3
11.885	-0.05	-0.03	0.98	0.11	-0.28	-0.19
11.894	-0.05	-0.01	0.96	0.11	-0.28	-0.19
11.894	-0.05	-0.01	0.96	0.14	-0.03	-0.41
11.918	-0.05	0.02	0.94	0.14	-0.03	-0.41
11.92	-0.05	0.02	0.94	0.15	0.19	-0.6
11.921	-0.06	0.02	0.92	0.15	0.19	-0.6
11.922	-0.06	0.02	0.92	0.05	0.24	-0.74
11.924	-0.08	0.02	0.92	0.05	0.24	-0.74
11.925	-0.08	0.02	0.92	-0.09	0.2	-0.72
11.933	-0.1	0.01	0.94	-0.09	0.2	-0.72
11.934	-0.1	0.01	0.94	-0.24	0.12	-0.6
11.944	-0.1	0.0	0.95	-0.24	0.12	-0.6
11.946	-0.1	0.0	0.95	-0.31	0.05	-0.47
11.955	-0.1	-0.02	0.97	-0.31	0.05	-0.47
11.957	-0.1	-0.02	0.97	-0.31	-0.11	-0.25
11.964	-0.1	-0.03	0.99	-0.31	-0.11	-0.25
11.965	-0.1	-0.03	0.99	-0.27	-0.2	-0.04
11.974	-0.09	-0.03	1.01	-0.27	-0.2	-0.04
11.975	-0.09	-0.03	1.01	-0.2	-0.22	0.09
11.984	-0.08	-0.03	1.01	-0.2	-0.22	0.09
11.986	-0.08	-0.03	1.01	-0.08	-0.19	0.12
12.0	-0.07	-0.02	1.01	-0.08	-0.19	0.12
12.002	-0.07	-0.02	1.01	0.03	-0.17	0.1
12.004	-0.06	-0.02	1.0	0.03	-0.17	0.1
12.005	-0.06	-0.02	1.0	0.12	-0.09	0.06
12.021	-0.05	-0.01	1.0	0.12	-0.09	0.06
12.022	-0.05	-0.01	1.0	0.16	-0.01	0.02
12.025	-0.05	0.0	1.0	0.16	-0.01	0.02
12.025	-0.05	0.0	1.0	0.19	0.09	-0.02
12.033	-0.05	0.01	0.99	0.19	0.09	-0.02
12.034	-0.05	0.01	0.99	0.2	0.16	-0.04
12.044	-0.05	0.01	1.0	0.2	0.16	-0.04
12.045	-0.05	0.01	1.0	0.2	0.15	0.03
12.054	-0.05	0.01	1.01	0.2	0.15	0.03
12.054	-0.05	0.01	1.01	0.16	0.13	0.1
12.065	-0.05	0.01	1.02	0.16	0.13	0.1
12.066	-0.05	0.01	1.02	0.15	0.14	0.19
12.075	-0.06	0.0	1.02	0.15	0.14	0.19
12.077	-0.06	0.0	1.02	0.07	0.01	0.24
12.083	-0.07	-0.02	1.02	0.07	0.01	0.24
12.085	-0.07	-0.02	1.02	-0.06	-0.12	0.25
12.1	-0.08	-0.02	1.02	-0.06	-0.12	0.25
12.102	-0.08	-0.02	1.02	-0.1	-0.17	0.21
12.105	-0.07	-0.01	1.01	-0.1	-0.17	0.21
12.106	-0.07	-0.01	1.01	-0.06	-0.12	0.11
12.118	-0.07	-0.01	1.0	-0.06	-0.12	0.11
12.119	-0.07	-0.01	1.0	-0.03	-0.06	0.02
12.128	-0.07	-0.01	0.99	-0.03	-0.06	0.02
12.13	-0.07	-0.01	0.99	-0.03	-0.04	-0.06
12.134	-0.07	-0.01	0.99	-0.03	-0.04	-0.06
12.135	-0.07	-0.01	0.99	0.0	-0.08	-0.12
12.144	-0.06	-0.01	0.98	0.0	-0.08	-0.12
12.145	-0.06	-0.01	0.98	0.04	-0.11	-0.18
12.157	-0.06	-0.02	0.98	0.04	-0.11	-0.18
12.159	-0.06	-0.02	0.98	0.05	-0.15	-0.2
12.163	-0.06	-0.02	0.98	0.05	-0.15	-0.2
12.164	-0.06	-0.02	0.98	0.05	-0.2	-0.22
12.174	-0.06	-0.02	0.98	0.05	-0.2	-0.22
12.176	-0.06	-0.02	0.98	0.06	-0.21	-0.2
12.183	-0.06	-0.02	0.99	0.06	-0.21	-0.2
12.185	-0.06	-0.02	0.99	0.07	-0.15	-0.13
12.194	-0.05	-0.01	1.0	0.07	-0.15	-0.13
12.195	-0.05	-0.01	1.0	0.08	-0.06	0.0
12.22	-0.05	0.01	1.01	0.08	-0.06	0.0
12.222	-0.05	0.01	1.01	0.09	0.07	0.09
12.223	-0.06	0.01	1.01	0.09	0.07	0.09
12.224	-0.06	0.01	1.01	0.04	0.1	0.16
12.225	-0.06	0.01	1.02	0.04	0.1	0.16
12.226	-0.06	0.01	1.02	0.0	0.07	0.19
12.234	-0.06	0.01	1.02	0.0	0.07	0.19
12.235	-0.06	0.01	1.02	-0.01	0.08	0.24
12.244	-0.06	0.02	1.02	-0.01	0.08	0.24
12.246	-0.06	0.02	1.02	-0.02	0.16	0.24
12.257	-0.05	0.03	1.02	-0.02	0.16	0.24
12.259	-0.05	0.03	1.02	0.04	0.3	0.24
12.263	-0.04	0.03	1.03	0.04	0.3	0.24
12.265	-0.04	0.03	1.03	0.14	0.34	0.32
12.274	-0.06	0.01	1.02	0.14	0.34	0.32
12.276	-0.06	0.01	1.02	-0.03	0.14	0.19
12.284	-0.06	0.01	1.01	-0.03	0.14	0.19
12.285	-0.06	0.01	1.01	-0.07	0.08	0.14
12.294	-0.05	0.01	1.01	-0.07	0.08	0.14
12.295	-0.05	0.01	1.01	0.01	0.1	0.13
12.32	-0.04	0.02	1.02	0.01	0.1	0.13
12.322	-0.04	0.02	1.02	0.12	0.21	0.16
12.323	-0.04	0.03	1.02	0.12	0.21	0.16
12.324	-0.04	0.03	1.02	0.16	0.28	0.22
12.326	-0.04	0.02	1.02	0.16	0.28	0.22
12.327	-0.04	0.02	1.02	0.1	0.16	0.19
12.334	-0.05	0.01	1.02	0.1	0.16	0.19
12.335	-0.05	0.01	1.02	0.08	0.08	0.2
12.345	-0.05	0.01	1.02	0.08	0.08	0.2
12.346	-0.05	0.01	1.02	0.08	0.08	0.22
12.355	-0.04	0.01	1.02	0.08	0.08	0.22
12.356	-0.04	0.01	1.02	0.09	0.12	0.2
12.364	-0.05	0.01	1.02	0.09	0.12	0.2
12.365	-0.05	0.01	1.02	0.07	0.1	0.18
12.374	-0.05	0.01	1.01	0.07	0.1	0.18
12.375	-0.05	0.01	1.01	0.06	0.1	0.13
12.384	-0.05	0.01	1.0	0.06	0.1	0.13
12.385	-0.05	0.01	1.0	0.06	0.08	0.05
12.394	-0.05	0.01	1.0	0.06	0.08	0.05
12.395	-0.05	0.01	1.0	0.04	0.05	-0.02
12.419	-0.05	0.01	0.99	0.04	0.05	-0.02
12.421	-0.05	0.01	0.99	0.04	0.02	-0.09
12.422	-0.05	0.0	0.98	0.04	0.02	-0.09
12.425	-0.05	0.0	0.98	0.03	-0.01	-0.17
12.426	-0.05	0.0	0.97	0.03	-0.01	-0.17
12.427	-0.05	0.0	0.97	0.05	0.0	-0.24
12.434	-0.05	0.0	0.97	0.05	0.0	-0.24
12.435	-0.05	0.0	0.97	0.07	-0.01	-0.26
12.444	-0.05	0.0	0.97	0.07	-0.01	-0.26
12.445	-0.05	0.0	0.97	0.1	-0.02	-0.24
12.456	-0.04	0.01	0.98	0.1	-0.02	-0.24
12.457	-0.04	0.01	0.98	0.13	0.02	-0.17
12.464	-0.05	0.0	0.99	0.13	0.02	-0.17
12.465	-0.05	0.0	0.99	0.11	-0.01	-0.1
12.474	-0.05	0.0	0.99	0.11	-0.01	-0.1
12.476	-0.05	0.0	0.99	0.04	-0.01	-0.05
12.484	-0.06	0.0	1.0	0.04	-0.01	-0.05
12.485	-0.06	0.0	1.0	0.01	-0.02	-0.02
12.494	-0.06	0.0	1.0	0.01	-0.02	-0.02
12.495	-0.06	0.0	1.0	0.0	-0.06	0.03
12.524	-0.06	0.0	1.0	0.0	-0.06	0.03
12.526	-0.06	0.0	1.0	-0.03	-0.05	0.04
12.527	-0.06	-0.01	1.0	-0.03	-0.05	0.04
12.528	-0.06	-0.01	1.0	-0.03	-0.08	0.05
12.529	-0.06	-0.01	1.0	-0.03	-0.08	0.05
12.53	-0.06	-0.01	1.0	0.0	-0.09	0.03
12.535	-0.05	-0.01	1.0	0.0	-0.09	0.03
12.537	-0.05	-0.01	1.0	0.02	-0.07	0.01
12.547	-0.05	0.0	1.0	0.02	-0.07	0.01
12.549	-0.05	0.0	1.0	0.04	-0.05	0.0
12.56	-0.05	-0.01	1.0	0.04	-0.05	0.0
12.562	-0.05	-0.01	1.0	0.04	-0.07	0.0
12.564	-0.05	-0.01	1.0	0.04	-0.07	0.0
12.565	-0.05	-0.01	1.0	0.03	-0.09	-0.02
12.574	-0.05	0.0	1.0	0.03	-0.09	-0.02
12.576	-0.05	0.0	1.0	0.08	-0.02	0.04
12.584	-0.05	0.0	1.01	0.08	-0.02	0.04
12.585	-0.05	0.0	1.01	0.07	0.01	0.06
12.594	-0.05	0.0	1.01	0.07	0.01	0.06
12.595	-0.05	0.0	1.01	0.05	-0.06	0.12
12.616	-0.05	-0.01	1.01	0.05	-0.06	0.12
12.618	-0.05	-0.01	1.01	0.02	-0.07	0.13
12.619	-0.05	-0.01	1.01	0.02	-0.07	0.13
12.619	-0.05	-0.01	1.01	-0.02	-0.1	0.14
12.637	-0.05	-0.03	1.03	-0.02	-0.1	0.14
12.639	-0.05	-0.03	1.03	0.02	-0.31	0.27
12.639	-0.05	-0.03	1.06	0.02	-0.31	0.27
12.64	-0.05	-0.03	1.06	0.01	-0.32	0.59
12.645	-0.07	0.04	1.0	0.01	-0.32	0.59
12.646	-0.07	0.04	1.0	-0.15	0.36	-0.01
12.655	-0.06	0.03	0.97	-0.15	0.36	-0.01
12.657	-0.06	0.03	0.97	-0.04	0.25	-0.28
12.664	-0.04	0.0	0.98	-0.04	0.25	-0.28
12.665	-0.04	0.0	0.98	0.09	-0.02	-0.14
12.675	-0.05	-0.01	1.01	0.09	-0.02	-0.14
12.677	-0.05	-0.01	1.01	0.01	-0.14	0.09
12.684	-0.06	0.0	1.01	0.01	-0.14	0.09
12.685	-0.06	0.0	1.01	-0.06	0.04	0.11
12.694	-0.05	0.01	0.99	-0.06	0.04	0.11
12.695	-0.05	0.01	0.99	0.02	0.13	-0.06
12.716	-0.04	0.01	0.99	0.02	0.13	-0.06
12.718	-0.04	0.01	0.99	0.07	0.15	-0.07
12.719	-0.05	0.01	1.0	0.07	0.15	-0.07
12.72	-0.05	0.01	1.0	0.05	0.07	-0.02
12.735	-0.05	0.01	1.0	0.05	0.07	-0.02
12.736	-0.05	0.01	1.0	0.04	0.08	0.05
12.737	-0.05	0.01	1.01	0.04	0.08	0.05
12.738	-0.05	0.01	1.01	-0.01	0.07	0.07
12.744	-0.05	0.0	1.01	-0.01	0.07	0.07
12.745	-0.05	0.0	1.01	-0.03	0.04	0.1
12.756	-0.05	0.0	1.01	-0.03	0.04	0.1
12.758	-0.05	0.0	1.01	-0.02	0.02	0.06
12.764	-0.05	0.01	1.0	-0.02	0.02	0.06
12.765	-0.05	0.01	1.0	0.01	0.06	0.02
12.774	-0.05	0.01	1.0	0.01	0.06	0.02
12.776	-0.05	0.01	1.0	0.04	0.1	-0.01
12.784	-0.05	0.01	1.0	0.04	0.1	-0.01
12.785	-0.05	0.01	1.0	0.02	0.09	0.0
12.794	-0.05	0.01	1.0	0.02	0.09	0.0
12.794	-0.05	0.01	1.0	0.01	0.07	-0.02
12.815	-0.05	0.01	1.0	0.01	0.07	-0.02
12.817	-0.05	0.01	1.0	-0.01	0.06	-0.02
12.818	-0.05	0.0	1.0	-0.01	0.06	-0.02
12.819	-0.05	0.0	1.0	0.0	0.05	-0.02
12.835	-0.05	0.0	1.0	0.0	0.05	-0.02
12.837	-0.05	0.0	1.0	-0.01	0.04	0.02
12.838	-0.05	0.0	1.0	-0.01	0.04	0.02
12.839	-0.05	0.0	1.0	-0.02	0.03	0.05
12.844	-0.05	0.0	1.01	-0.02	0.03	0.05
12.845	-0.05	0.0	1.01	-0.02	0.0	0.08
12.854	-0.05	0.0	1.01	-0.02	0.0	0.08
12.856	-0.05	0.0	1.01	-0.02	-0.03	0.07
12.864	-0.05	0.0	1.0	-0.02	-0.03	0.07
12.865	-0.05	0.0	1.0	0.0	-0.03	0.04
12.874	-0.05	0.0	1.0	0.0	-0.03	0.04
12.876	-0.05	0.0	1.0	-0.01	-0.02	0.03
12.884	-0.05	0.0	1.0	-0.01	-0.02	0.03
12.885	-0.05	0.0	1.0	0.0	-0.03	0.02
12.895	-0.05	0.0	1.0	0.0	-0.03	0.02
12.896	-0.05	0.0	1.0	0.0	-0.03	0.0
12.918	-0.05	-0.01	1.0	0.0	-0.03	0.0
12.919	-0.05	-0.01	1.0	-0.02	-0.04	0.01
12.921	-0.05	0.0	1.0	-0.02	-0.04	0.01
12.922	-0.05	0.0	1.0	-0.01	0.0	-0.01
12.924	-0.06	0.0	1.0	-0.01	0.0	-0.01
12.926	-0.06	0.0	1.0	-0.05	0.0	0.03
12.934	-0.06	0.0	1.0	-0.05	0.0	0.03
12.935	-0.06	0.0	1.0	-0.04	-0.02	0.05
12.944	-0.06	-0.01	1.01	-0.04	-0.02	0.05
12.946	-0.06	-0.01	1.01	-0.04	-0.05	0.07
12.954	-0.06	-0.01	1.01	-0.04	-0.05	0.07
12.957	-0.06	-0.01	1.01	-0.03	-0.04	0.09
12.964	-0.05	0.0	1.01	-0.03	-0.04	0.09
12.965	-0.05	0.0	1.01	0.02	0.0	0.14
12.974	-0.05	0.0	1.01	0.02	0.0	0.14
12.975	-0.05	0.0	1.01	0.0	0.0	0.12
12.985	-0.05	-0.01	1.01	0.0	0.0	0.12
12.988	-0.05	-0.01	1.01	-0.02	-0.05	0.1
12.994	-0.06	-0.01	1.01	-0.02	-0.05	0.1
12.995	-0.06	-0.01	1.01	-0.02	-0.06	0.07
13.014	-0.06	-0.01	1.01	-0.02	-0.06	0.07
13.016	-0.06	-0.01	1.01	-0.01	-0.03	0.06
13.018	-0.06	0.0	1.0	-0.01	-0.03	0.06
13.019	-0.06	0.0	1.0	-0.02	0.0	0.04
13.039	-0.06	0.0	1.0	-0.02	0.0	0.04
13.041	-0.06	0.0	1.0	-0.01	0.02	0.03
13.042	-0.06	0.0	1.0	-0.01	0.02	0.03
13.043	-0.06	0.0	1.0	-0.01	0.04	0.03
13.045	-0.05	0.0	1.0	-0.01	0.04	0.03
13.046	-0.05	0.0	1.0	0.0	0.06	0.01
13.056	-0.05	0.0	1.0	0.0	0.06	0.01
13.058	-0.05	0.0	1.0	0.0	0.05	-0.01
13.064	-0.05	0.0	1.0	0.0	0.05	-0.01
13.065	-0.05	0.0	1.0	0.01	0.05	-0.02
13.074	-0.05	0.0	1.0	0.01	0.05	-0.02
13.075	-0.05	0.0	1.0	0.01	0.04	-0.02
13.084	-0.05	0.0	1.0	0.01	0.04	-0.02
13.085	-0.05	0.0	1.0	0.01	0.04	0.03
13.095	-0.05	0.0	1.0	0.01	0.04	0.03
13.097	-0.05	0.0	1.0	0.02	0.03	0.05
13.105	-0.05	0.0	1.0	0.02	0.03	0.05
13.106	-0.05	0.0	1.0	0.04	0.03	0.05
13.114	-0.05	0.0	1.0	0.04	0.03	0.05
13.115	-0.05	0.0	1.0	0.02	0.03	0.02
13.131	-0.05	0.0	1.0	0.02	0.03	0.02
13.133	-0.05	0.0	1.0	0.02	0.04	0.03
13.134	-0.05	0.0	1.0	0.02	0.04	0.03
13.135	-0.05	0.0	1.0	0.01	0.04	0.04
13.153	-0.06	0.0	1.0	0.01	0.04	0.04
13.154	-0.06	0.0	1.0	0.0	0.04	0.04
13.155	-0.06	0.0	1.0	0.0	0.04	0.04
13.156	-0.06	0.0	1.0	0.0	0.05	0.06
13.165	-0.06	0.0	1.01	0.0	0.05	0.06
13.166	-0.06	0.0	1.01	0.0	0.06	0.06
13.174	-0.06	0.0	1.0	0.0	0.06	0.06
13.176	-0.06	0.0	1.0	0.01	0.07	0.05
13.184	-0.05	0.0	1.0	0.01	0.07	0.05
13.185	-0.05	0.0	1.0	0.03	0.07	0.04
13.194	-0.05	0.0	1.0	0.03	0.07	0.04
13.194	-0.05	0.0	1.0	0.03	0.06	0.04
13.218	-0.05	0.0	1.0	0.03	0.06	0.04
13.219	-0.05	0.0	1.0	0.03	0.06	0.04
13.221	-0.05	0.0	1.0	0.03	0.06	0.04
13.222	-0.05	0.0	1.0	0.03	0.06	0.04
13.224	-0.06	0.0	1.0	0.03	0.06	0.04
13.225	-0.06	0.0	1.0	0.03	0.06	0.05
13.234	-0.05	0.0	1.0	0.03	0.06	0.05
13.235	-0.05	0.0	1.0	0.03	0.05	0.05
13.25	-0.05	0.0	1.01	0.03	0.05	0.05
13.253	-0.05	0.0	1.01	0.05	0.05	0.06
13.254	-0.05	0.0	1.01	0.05	0.05	0.06
13.255	-0.05	0.0	1.01	0.06	0.04	0.07
13.264	-0.05	0.0	1.0	0.06	0.04	0.07
13.265	-0.05	0.0	1.0	0.04	0.03	0.05
13.274	-0.05	0.0	1.0	0.04	0.03	0.05
13.275	-0.05	0.0	1.0	0.03	0.03	0.02
13.283	-0.06	0.0	1.0	0.03	0.03	0.02
13.285	-0.06	0.0	1.0	0.03	0.02	0.0
13.294	-0.06	0.0	1.0	0.03	0.02	0.0
13.295	-0.06	0.0	1.0	0.03	-0.01	-0.01
13.318	-0.06	0.0	1.0	0.03	-0.01	-0.01
13.32	-0.06	0.0	1.0	0.02	-0.01	-0.02
13.321	-0.06	0.0	1.0	0.02	-0.01	-0.02
13.322	-0.06	0.0	1.0	0.03	-0.03	-0.04
13.324	-0.06	0.0	0.99	0.03	-0.03	-0.04
13.326	-0.06	0.0	0.99	0.04	-0.01	-0.05
13.334	-0.06	0.0	0.99	0.04	-0.01	-0.05
13.336	-0.06	0.0	0.99	0.04	0.0	-0.06
13.344	-0.06	0.0	0.99	0.04	0.0	-0.06
13.346	-0.06	0.0	0.99	0.04	0.0	-0.06
13.354	-0.05	0.0	0.99	0.04	0.0	-0.06
13.355	-0.05	0.0	0.99	0.05	0.0	-0.04
13.364	-0.05	0.0	1.0	0.05	0.0	-0.04
13.365	-0.05	0.0	1.0	0.05	0.0	-0.01
13.374	-0.06	0.0	1.0	0.05	0.0	-0.01
13.376	-0.06	0.0	1.0	0.04	-0.01	0.03
13.384	-0.06	0.0	1.01	0.04	-0.01	0.03
13.385	-0.06	0.0	1.01	0.03	-0.01	0.07
13.394	-0.06	0.0	1.01	0.03	-0.01	0.07
13.395	-0.06	0.0	1.01	0.03	-0.03	0.08
13.416	-0.06	0.0	1.01	0.03	-0.03	0.08
13.418	-0.06	0.0	1.01	0.03	-0.03	0.08
13.421	-0.06	0.0	1.01	0.03	-0.03	0.08
13.423	-0.06	0.0	1.01	0.02	-0.02	0.08
13.425	-0.06	0.0	1.01	0.02	-0.02	0.08
13.426	-0.06	0.0	1.01	0.01	-0.02	0.07
13.434	-0.06	0.0	1.0	0.01	-0.02	0.07
13.435	-0.06	0.0	1.0	0.02	-0.01	0.06
13.444	-0.06	0.0	1.0	0.02	-0.01	0.06
13.446	-0.06	0.0	1.0	0.0	-0.01	0.03
13.454	-0.06	0.0	1.0	0.0	-0.01	0.03
13.456	-0.06	0.0	1.0	0.0	-0.01	0.01
13.464	-0.06	0.0	1.0	0.0	-0.01	0.01
13.465	-0.06	0.0	1.0	0.01	0.0	-0.01
13.474	-0.06	0.0	1.0	0.01	0.0	-0.01
13.475	-0.06	0.0	1.0	0.0	0.0	0.01
13.484	-0.06	0.0	1.0	0.0	0.0	0.01
13.485	-0.06	0.0	1.0	0.01	0.0	0.04
13.494	-0.06	0.0	1.01	0.01	0.0	0.04
13.495	-0.06	0.0	1.01	0.01	-0.01	0.06
13.512	-0.06	0.0	1.01	0.01	-0.01	0.06
13.515	-0.06	0.0	1.01	0.01	-0.01	0.07
13.516	-0.06	0.0	1.01	0.01	-0.01	0.07
13.517	-0.06	0.0	1.01	0.01	-0.01	0.07
13.53	-0.06	0.0	1.01	0.01	-0.01	0.07
13.532	-0.06	0.0	1.01	0.0	-0.01	0.07
13.534	-0.06	0.0	1.01	0.0	-0.01	0.07
13.535	-0.06	0.0	1.01	0.0	-0.01	0.06
13.544	-0.06	0.0	1.0	0.0	-0.01	0.06
13.545	-0.06	0.0	1.0	-0.01	0.0	0.03
13.554	-0.06	0.0	1.0	-0.01	0.0	0.03
13.556	-0.06	0.0	1.0	0.0	0.0	0.0
13.564	-0.06	0.0	1.0	0.0	0.0	0.0
13.565	-0.06	0.0	1.0	-0.01	0.01	-0.01
13.574	-0.06	0.0	1.0	-0.01	0.01	-0.01
13.575	-0.06	0.0	1.0	-0.01	0.0	-0.02
13.584	-0.06	0.0	1.0	-0.01	0.0	-0.02
13.585	-0.06	0.0	1.0	-0.02	0.01	-0.03
13.594	-0.06	0.0	1.0	-0.02	0.01	-0.03
13.596	-0.06	0.0	1.0	-0.02	0.0	-0.02
13.621	-0.06	0.0	1.0	-0.02	0.0	-0.02
13.624	-0.06	0.0	1.0	0.0	-0.01	0.0
13.626	-0.06	-0.01	1.0	0.0	-0.01	0.0
13.627	-0.06	-0.01	1.0	0.0	-0.03	0.02
13.63	-0.06	-0.01	1.0	0.0	-0.03	0.02
13.633	-0.06	-0.01	1.0	0.0	-0.04	0.03
13.634	-0.06	-0.01	1.0	0.0	-0.04	0.03
13.636	-0.06	-0.01	1.0	0.01	-0.05	0.04
13.644	-0.06	-0.01	1.0	0.01	-0.05	0.04
13.649	-0.06	-0.01	1.0	-0.01	-0.05	0.05
13.655	-0.06	-0.01	1.0	-0.01	-0.05	0.05
13.658	-0.06	-0.01	1.0	-0.01	-0.05	0.05
13.664	-0.06	-0.01	1.0	-0.01	-0.05	0.05
13.665	-0.06	-0.01	1.0	-0.02	-0.05	0.05
13.675	-0.07	-0.01	1.0	-0.02	-0.05	0.05
13.676	-0.07	-0.01	1.0	-0.03	-0.06	0.03
13.688	-0.07	-0.01	1.0	-0.03	-0.06	0.03
13.689	-0.07	-0.01	1.0	-0.04	-0.03	0.01
13.694	-0.06	-0.01	1.0	-0.04	-0.03	0.01
13.694	-0.06	-0.01	1.0	-0.03	-0.02	-0.02
13.704	-0.07	-0.01	0.99	-0.03	-0.02	-0.02
13.705	-0.07	-0.01	0.99	-0.03	-0.03	-0.05
13.714	-0.07	-0.01	1.0	-0.03	-0.03	-0.05
13.714	-0.07	-0.01	1.0	-0.04	-0.02	-0.03
13.738	-0.07	-0.01	1.0	-0.04	-0.02	-0.03
13.741	-0.07	-0.01	1.0	-0.06	-0.03	0.01
13.742	-0.07	-0.01	1.0	-0.06	-0.03	0.01
13.744	-0.07	-0.01	1.0	-0.06	-0.03	0.04
13.75	-0.07	-0.01	1.0	-0.06	-0.03	0.04
13.751	-0.07	-0.01	1.0	-0.05	-0.03	0.04
13.767	-0.07	0.0	1.0	-0.05	-0.03	0.04
13.769	-0.07	0.0	1.0	-0.05	0.0	0.05
13.774	-0.07	0.0	1.0	-0.05	0.0	0.05
13.775	-0.07	0.0	1.0	-0.08	0.01	0.06
13.787	-0.07	0.0	1.01	-0.08	0.01	0.06
13.789	-0.07	0.0	1.01	-0.09	0.01	0.08
13.794	-0.08	0.0	1.01	-0.09	0.01	0.08
13.795	-0.08	0.0	1.01	-0.13	0.01	0.1
13.804	-0.08	-0.01	1.01	-0.13	0.01	0.1
13.806	-0.08	-0.01	1.01	-0.16	0.0	0.12
13.814	-0.08	-0.01	1.01	-0.16	0.0	0.12
13.815	-0.08	-0.01	1.01	-0.14	0.0	0.11
13.833	-0.08	0.0	1.01	-0.14	0.0	0.11
13.835	-0.08	0.0	1.01	-0.13	0.01	0.08
13.836	-0.08	0.0	1.0	-0.13	0.01	0.08
13.837	-0.08	0.0	1.0	-0.11	0.03	0.03
13.844	-0.08	0.0	1.0	-0.11	0.03	0.03
13.845	-0.08	0.0	1.0	-0.09	0.05	-0.01
13.86	-0.08	0.0	0.99	-0.09	0.05	-0.01
13.862	-0.08	0.0	0.99	-0.1	0.04	-0.05
13.864	-0.08	0.0	0.99	-0.1	0.04	-0.05
13.865	-0.08	0.0	0.99	-0.1	0.05	-0.05
13.876	-0.08	0.0	0.99	-0.1	0.05	-0.05
13.878	-0.08	0.0	0.99	-0.11	0.06	-0.05
13.889	-0.08	0.0	0.99	-0.11	0.06	-0.05
13.89	-0.08	0.0	0.99	-0.1	0.08	-0.05
13.894	-0.08	0.01	0.99	-0.1	0.08	-0.05
13.895	-0.08	0.01	0.99	-0.1	0.1	-0.08
13.905	-0.08	0.0	0.99	-0.1	0.1	-0.08
13.907	-0.08	0.0	0.99	-0.08	0.1	-0.08
13.914	-0.08	0.01	0.99	-0.08	0.1	-0.08
13.915	-0.08	0.01	0.99	-0.06	0.09	-0.08
13.931	-0.07	0.01	0.99	-0.06	0.09	-0.08
13.934	-0.07	0.01	0.99	-0.03	0.1	-0.06
13.935	-0.07	0.01	0.99	-0.03	0.1	-0.06
13.936	-0.07	0.01	0.99	-0.02	0.1	-0.04
13.956	-0.07	0.0	0.99	-0.02	0.1	-0.04
13.958	-0.07	0.0	0.99	0.0	0.07	-0.04
13.959	-0.07	0.0	1.0	0.0	0.07	-0.04
13.96	-0.07	0.0	1.0	0.02	0.05	-0.02
13.964	-0.07	0.0	1.0	0.02	0.05	-0.02
13.965	-0.07	0.0	1.0	0.04	0.05	0.01
13.974	-0.06	0.0	1.0	0.04	0.05	0.01
13.976	-0.06	0.0	1.0	0.06	0.04	0.03
13.986	-0.06	0.0	1.01	0.06	0.04	0.03
13.988	-0.06	0.0	1.01	0.07	0.04	0.07
13.994	-0.06	0.0	1.01	0.07	0.04	0.07
13.995	-0.06	0.0	1.01	0.06	0.03	0.11
14.005	-0.06	0.0	1.01	0.06	0.03	0.11
14.006	-0.06	0.0	1.01	0.07	0.03	0.14
14.014	-0.06	0.0	1.02	0.07	0.03	0.14
14.015	-0.06	0.0	1.02	0.06	0.03	0.17
14.036	-0.06	0.0	1.01	0.06	0.03	0.17
14.038	-0.06	0.0	1.01	0.05	0.02	0.16
14.039	-0.06	0.0	1.01	0.05	0.02	0.16
14.04	-0.06	0.0	1.01	0.05	0.03	0.15
14.044	-0.06	0.0	1.01	0.05	0.03	0.15
14.045	-0.06	0.0	1.01	0.05	0.03	0.11
14.055	-0.06	0.0	1.01	0.05	0.03	0.11
14.057	-0.06	0.0	1.01	0.05	0.02	0.08
14.064	-0.06	0.0	1.0	0.05	0.02	0.08
14.065	-0.06	0.0	1.0	0.05	0.02	0.05
14.075	-0.06	0.0	1.0	0.05	0.02	0.05
14.077	-0.06	0.0	1.0	0.05	0.01	0.02
14.085	-0.06	0.0	1.0	0.05	0.01	0.02
14.087	-0.06	0.0	1.0	0.04	0.02	-0.01
14.094	-0.06	0.0	0.99	0.04	0.02	-0.01
14.095	-0.06	0.0	0.99	0.05	0.0	-0.03
14.104	-0.06	-0.01	0.99	0.05	0.0	-0.03
14.106	-0.06	-0.01	0.99	0.04	-0.02	-0.07
14.114	-0.06	-0.01	0.99	0.04	-0.02	-0.07
14.115	-0.06	-0.01	0.99	0.04	-0.03	-0.07
14.13	-0.06	-0.01	0.99	0.04	-0.03	-0.07
14.132	-0.06	-0.01	0.99	0.05	-0.03	-0.06
14.134	-0.06	-0.01	0.99	0.05	-0.03	-0.06
14.135	-0.06	-0.01	0.99	0.05	-0.02	-0.05
14.152	-0.06	-0.01	0.99	0.05	-0.02	-0.05
14.155	-0.06	-0.01	0.99	0.04	-0.02	-0.04
14.156	-0.06	-0.01	1.0	0.04	-0.02	-0.04
14.157	-0.06	-0.01	1.0	0.05	-0.03	0.0
14.164	-0.06	-0.01	1.0	0.05	-0.03	0.0
14.165	-0.06	-0.01	1.0	0.05	-0.04	0.02
14.174	-0.06	-0.01	1.0	0.05	-0.04	0.02
14.176	-0.06	-0.01	1.0	0.06	-0.03	0.05
14.185	-0.06	-0.01	1.01	0.06	-0.03	0.05
14.187	-0.06	-0.01	1.01	0.07	-0.03	0.07
14.194	-0.06	-0.01	1.0	0.07	-0.03	0.07
14.195	-0.06	-0.01	1.0	0.06	-0.03	0.06
14.204	-0.06	-0.01	1.0	0.06	-0.03	0.06
14.205	-0.06	-0.01	1.0	0.06	-0.04	0.06
14.214	-0.06	-0.01	1.0	0.06	-0.04	0.06
14.215	-0.06	-0.01	1.0	0.06	-0.03	0.05
14.229	-0.06	-0.01	1.0	0.06	-0.03	0.05
14.23	-0.06	-0.01	1.0	0.05	-0.05	0.03
14.249	-0.06	-0.01	1.0	0.05	-0.05	0.03
14.25	-0.06	-0.01	1.0	0.04	-0.06	0.03
14.251	-0.06	-0.01	1.0	0.04	-0.06	0.03
14.253	-0.06	-0.01	1.0	0.04	-0.08	0.02
14.255	-0.06	-0.01	1.0	0.04	-0.08	0.02
14.256	-0.06	-0.01	1.0	0.04	-0.09	0.03
14.264	-0.06	-0.01	1.0	0.04	-0.09	0.03
14.265	-0.06	-0.01	1.0	0.02	-0.09	0.02
14.274	-0.06	-0.02	1.0	0.02	-0.09	0.02
14.276	-0.06	-0.02	1.0	0.0	-0.1	0.05
14.285	-0.06	-0.01	1.0	0.0	-0.1	0.05
14.287	-0.06	-0.01	1.0	0.0	-0.08	0.04
14.294	-0.06	-0.01	1.0	0.0	-0.08	0.04
14.295	-0.06	-0.01	1.0	0.0	-0.08	0.04
14.304	-0.06	-0.01	1.0	0.0	-0.08	0.04
14.305	-0.06	-0.01	1.0	0.01	-0.06	0.0
14.314	-0.06	-0.01	1.0	0.01	-0.06	0.0
14.315	-0.06	-0.01	1.0	0.01	-0.06	-0.02
14.331	-0.06	-0.01	1.0	0.01	-0.06	-0.02
14.334	-0.06	-0.01	1.0	0.0	-0.05	-0.03
14.335	-0.06	-0.01	1.0	0.0	-0.05	-0.03
14.336	-0.06	-0.01	1.0	-0.01	-0.06	-0.01
14.344	-0.06	-0.01	1.0	-0.01	-0.06	-0.01
14.346	-0.06	-0.01	1.0	-0.03	-0.06	0.02
14.356	-0.06	-0.01	1.01	-0.03	-0.06	0.02
14.357	-0.06	-0.01	1.01	-0.05	-0.07	0.06
14.364	-0.06	-0.02	1.01	-0.05	-0.07	0.06
14.365	-0.06	-0.02	1.01	-0.05	-0.08	0.08
14.374	-0.06	-0.02	1.01	-0.05	-0.08	0.08
14.376	-0.06	-0.02	1.01	-0.05	-0.09	0.07
14.385	-0.06	-0.02	1.0	-0.05	-0.09	0.07
14.386	-0.06	-0.02	1.0	-0.04	-0.07	0.05
14.394	-0.06	-0.01	1.0	-0.04	-0.07	0.05
14.395	-0.06	-0.01	1.0	-0.04	-0.05	0.04
14.404	-0.06	-0.01	1.0	-0.04	-0.05	0.04
14.405	-0.06	-0.01	1.0	-0.03	-0.06	0.05
14.414	-0.06	-0.01	1.0	-0.03	-0.06	0.05
14.415	-0.06	-0.01	1.0	-0.04	-0.05	0.04
14.432	-0.06	-0.01	1.0	-0.04	-0.05	0.04
14.437	-0.06	-0.01	1.0	-0.04	-0.05	0.05
14.438	-0.06	-0.01	1.01	-0.04	-0.05	0.05
14.439	-0.06	-0.01	1.01	-0.04	-0.04	0.07
14.444	-0.06	-0.01	1.01	-0.04	-0.04	0.07
14.445	-0.06	-0.01	1.01	-0.04	-0.03	0.08
14.456	-0.06	-0.01	1.01	-0.04	-0.03	0.08
14.457	-0.06	-0.01	1.01	-0.04	-0.04	0.08
14.464	-0.06	-0.01	1.01	-0.04	-0.04	0.08
14.466	-0.06	-0.01	1.01	-0.05	-0.03	0.08
14.474	-0.06	-0.01	1.01	-0.05	-0.03	0.08
14.476	-0.06	-0.01	1.01	-0.05	-0.01	0.07
14.485	-0.06	-0.01	1.01	-0.05	-0.01	0.07
14.487	-0.06	-0.01	1.01	-0.06	0.0	0.06
14.493	-0.07	-0.01	1.01	-0.06	0.0	0.06
14.495	-0.07	-0.01	1.01	-0.07	-0.01	0.06
14.503	-0.07	-0.01	1.0	-0.07	-0.01	0.06
14.505	-0.07	-0.01	1.0	-0.09	-0.02	0.05
14.514	-0.07	-0.01	1.01	-0.09	-0.02	0.05
14.514	-0.07	-0.01	1.01	-0.09	-0.03	0.06
14.528	-0.07	-0.02	1.01	-0.09	-0.03	0.06
14.53	-0.07	-0.02	1.01	-0.08	-0.06	0.07
14.549	-0.07	-0.02	1.01	-0.08	-0.06	0.07
14.551	-0.07	-0.02	1.01	-0.07	-0.08	0.07
14.554	-0.07	-0.02	1.0	-0.07	-0.08	0.07
14.555	-0.07	-0.02	1.0	-0.06	-0.12	0.01
14.564	-0.07	-0.03	1.0	-0.06	-0.12	0.01
14.565	-0.07	-0.03	1.0	-0.07	-0.13	0.01
14.574	-0.07	-0.03	1.0	-0.07	-0.13	0.01
14.575	-0.07	-0.03	1.0	-0.1	-0.16	0.02
14.587	-0.07	-0.03	1.0	-0.1	-0.16	0.02
14.588	-0.07	-0.03	1.0	-0.12	-0.18	0.06
14.594	-0.08	-0.04	1.01	-0.12	-0.18	0.06
14.595	-0.08	-0.04	1.01	-0.13	-0.21	0.09
14.614	-0.08	-0.04	1.01	-0.13	-0.21	0.09
14.617	-0.08	-0.04	1.01	-0.12	-0.23	0.09
14.626	-0.07	-0.05	1.01	-0.12	-0.23	0.09
14.627	-0.07	-0.05	1.01	-0.11	-0.28	0.1
14.629	-0.07	-0.05	1.01	-0.11	-0.28	0.1
14.631	-0.07	-0.05	1.01	-0.1	-0.33	0.11
14.638	-0.08	-0.07	1.01	-0.1	-0.33	0.11
14.639	-0.08	-0.07	1.01	-0.13	-0.44	0.15
14.644	-0.08	-0.08	1.01	-0.13	-0.44	0.15
14.645	-0.08	-0.08	1.01	-0.15	-0.55	0.13
14.654	-0.08	-0.09	1.01	-0.15	-0.55	0.13
14.656	-0.08	-0.09	1.01	-0.11	-0.65	0.11
14.664	-0.07	-0.09	1.01	-0.11	-0.65	0.11
14.666	-0.07	-0.09	1.01	-0.03	-0.7	0.09
14.675	-0.05	-0.11	1.0	-0.03	-0.7	0.09
14.677	-0.05	-0.11	1.0	0.11	-0.84	0.01
14.684	-0.05	-0.13	0.99	0.11	-0.84	0.01
14.686	-0.05	-0.13	0.99	0.2	-1.01	-0.06
14.694	-0.04	-0.15	0.99	0.2	-1.01	-0.06
14.695	-0.04	-0.15	0.99	0.2	-1.2	-0.06
14.705	-0.04	-0.16	0.99	0.2	-1.2	-0.06
14.706	-0.04	-0.16	0.99	0.22	-1.34	-0.11
14.714	-0.04	-0.18	0.99	0.22	-1.34	-0.11
14.715	-0.04	-0.18	0.99	0.21	-1.44	-0.11
14.729	-0.04	-0.19	0.98	0.21	-1.44	-0.11
14.73	-0.04	-0.19	0.98	0.22	-1.53	-0.15
14.752	-0.03	-0.18	0.97	0.22	-1.53	-0.15
14.755	-0.03	-0.18	0.97	0.36	-1.45	-0.29
14.756	-0.03	-0.18	0.97	0.36	-1.45	-0.29
14.757	-0.03	-0.18	0.97	0.36	-1.44	-0.29
14.758	-0.02	-0.18	0.95	0.36	-1.44	-0.29
14.759	-0.02	-0.18	0.95	0.37	-1.41	-0.46
14.764	-0.04	-0.18	0.94	0.37	-1.41	-0.46
14.765	-0.04	-0.18	0.94	0.26	-1.49	-0.58
14.774	-0.05	-0.22	0.91	0.26	-1.49	-0.58
14.777	-0.05	-0.22	0.91	0.07	-1.85	-0.89
14.784	-0.04	-0.27	0.86	0.07	-1.85	-0.89
14.786	-0.04	-0.27	0.86	0.19	-2.34	-1.34
14.794	-0.03	-0.25	0.92	0.19	-2.34	-1.34
14.795	-0.03	-0.25	0.92	0.31	-2.14	-0.82
14.804	-0.07	-0.22	0.95	0.31	-2.14	-0.82
14.805	-0.07	-0.22	0.95	-0.07	-1.87	-0.47
14.814	-0.06	-0.19	0.98	-0.07	-1.87	-0.47
14.815	-0.06	-0.19	0.98	-0.02	-1.5	-0.19
14.832	-0.05	-0.15	1.01	-0.02	-1.5	-0.19
14.833	-0.05	-0.15	1.01	0.09	-1.1	0.06
14.837	-0.03	-0.15	1.04	0.09	-1.1	0.06
14.838	-0.03	-0.15	1.04	0.2	-1.12	0.36
14.856	-0.1	0.03	1.12	0.2	-1.12	0.36
14.858	-0.1	0.03	1.12	-0.43	0.63	1.23
14.865	-0.1	0.05	1.15	-0.43	0.63	1.23
14.869	-0.1	0.05	1.15	-0.51	0.78	1.5
14.874	-0.1	0.0	1.19	-0.51	0.78	1.5
14.876	-0.1	0.0	1.19	-0.54	0.33	1.84
14.884	-0.07	-0.03	1.2	-0.54	0.33	1.84
14.885	-0.07	-0.03	1.2	-0.26	-0.02	1.93
14.894	-0.05	-0.06	1.12	-0.26	-0.02	1.93
14.895	-0.05	-0.06	1.12	-0.04	-0.29	1.15
14.904	-0.04	-0.13	1.04	-0.04	-0.29	1.15
14.905	-0.04	-0.13	1.04	0.04	-1.0	0.43
14.914	-0.03	-0.17	1.02	0.04	-1.0	0.43
14.915	-0.03	-0.17	1.02	0.12	-1.36	0.22
14.927	-0.05	-0.21	0.96	0.12	-1.36	0.22
14.929	-0.05	-0.21	0.96	-0.01	-1.76	-0.43
14.955	-0.05	-0.24	0.9	-0.01	-1.76	-0.43
14.957	-0.05	-0.24	0.9	0.01	-2.05	-0.94
14.957	-0.05	-0.25	0.88	0.01	-2.05	-0.94
14.958	-0.05	-0.25	0.88	0.02	-2.2	-1.17
14.959	-0.05	-0.28	0.87	0.02	-2.2	-1.17
14.96	-0.05	-0.28	0.87	0.0	-2.49	-1.22
14.963	-0.04	-0.32	0.89	0.0	-2.49	-1.22
14.965	-0.04	-0.32	0.89	0.15	-2.88	-1.05
14.974	-0.04	-0.31	0.93	0.15	-2.88	-1.05
14.975	-0.04	-0.31	0.93	0.09	-2.79	-0.64
14.984	-0.04	-0.28	0.97	0.09	-2.79	-0.64
14.985	-0.04	-0.28	0.97	0.12	-2.49	-0.27
14.993	-0.04	-0.21	0.98	0.12	-2.49	-0.27
14.994	-0.04	-0.21	0.98	0.16	-1.8	-0.17
15.004	-0.03	-0.13	0.98	0.16	-1.8	-0.17
15.005	-0.03	-0.13	0.98	0.18	-1.03	-0.14
15.013	-0.02	-0.15	1.01	0.18	-1.03	-0.14
15.015	-0.02	-0.15	1.01	0.3	-1.21	0.11
15.029	-0.01	-0.15	1.05	0.3	-1.21	0.11
15.03	-0.01	-0.15	1.05	0.37	-1.27	0.45
15.051	-0.03	-0.11	1.08	0.37	-1.27	0.45
15.052	-0.03	-0.11	1.08	0.19	-0.9	0.82
15.054	-0.04	-0.08	1.1	0.19	-0.9	0.82
15.054	-0.04	-0.08	1.1	0.12	-0.61	0.98
15.055	-0.06	-0.06	1.11	0.12	-0.61	0.98
15.056	-0.06	-0.06	1.11	-0.05	-0.46	1.08
15.063	-0.08	-0.05	1.1	-0.05	-0.46	1.08
15.064	-0.08	-0.05	1.1	-0.28	-0.38	0.96
15.074	-0.08	-0.05	1.08	-0.28	-0.38	0.96
15.076	-0.08	-0.05	1.08	-0.25	-0.33	0.75
15.083	-0.08	-0.03	1.06	-0.25	-0.33	0.75
15.085	-0.08	-0.03	1.06	-0.19	-0.19	0.57
15.094	-0.05	-0.01	1.05	-0.19	-0.19	0.57
15.095	-0.05	-0.01	1.05	0.09	-0.05	0.48
15.104	-0.02	0.0	1.04	0.09	-0.05	0.48
15.105	-0.02	0.0	1.04	0.44	0.03	0.37
15.114	0.0	0.0	1.03	0.44	0.03	0.37
15.115	0.0	0.0	1.03	0.67	0.06	0.27
15.13	0.0	0.0	1.03	0.67	0.06	0.27
15.131	0.0	0.0	1.03	0.67	0.05	0.32
15.134	-0.02	-0.01	1.05	0.67	0.05	0.32
15.135	-0.02	-0.01	1.05	0.51	-0.09	0.53
15.144	-0.04	-0.03	1.08	0.51	-0.09	0.53
15.145	-0.04	-0.03	1.08	0.31	-0.37	0.82
15.154	-0.06	-0.06	1.11	0.31	-0.37	0.82
15.156	-0.06	-0.06	1.11	0.21	-0.6	1.06
15.164	-0.06	-0.07	1.11	0.21	-0.6	1.06
15.165	-0.06	-0.07	1.11	0.16	-0.77	1.06
15.174	-0.07	-0.09	1.08	0.16	-0.77	1.06
15.176	-0.07	-0.09	1.08	0.15	-0.88	0.84
15.184	-0.07	-0.1	1.05	0.15	-0.88	0.84
15.186	-0.07	-0.1	1.05	0.18	-0.99	0.48
15.194	-0.05	-0.1	1.0	0.18	-0.99	0.48
15.195	-0.05	-0.1	1.0	0.36	-1.0	0.01
15.204	-0.03	-0.1	0.95	0.36	-1.0	0.01
15.205	-0.03	-0.1	0.95	0.64	-1.01	-0.49
15.214	0.0	-0.11	0.9	0.64	-1.01	-0.49
15.215	0.0	-0.11	0.9	0.93	-1.05	-0.97
15.228	0.02	-0.12	0.86	0.93	-1.05	-0.97
15.229	0.02	-0.12	0.86	1.18	-1.18	-1.36
15.249	0.04	-0.14	0.84	1.18	-1.18	-1.36
15.25	0.04	-0.14	0.84	1.44	-1.34	-1.52
15.251	0.05	-0.16	0.85	1.44	-1.34	-1.52
15.252	0.05	-0.16	0.85	1.51	-1.55	-1.38
15.254	0.03	-0.18	0.9	1.51	-1.55	-1.38
15.254	0.03	-0.18	0.9	1.36	-1.72	-0.92
15.264	0.01	-0.18	0.97	1.36	-1.72	-0.92
15.265	0.01	-0.18	0.97	1.13	-1.81	-0.25
15.274	-0.01	-0.18	1.04	1.13	-1.81	-0.25
15.276	-0.01	-0.18	1.04	0.94	-1.81	0.41
15.284	-0.02	-0.17	1.08	0.94	-1.81	0.41
15.286	-0.02	-0.17	1.08	0.87	-1.65	0.88
15.294	-0.01	-0.13	1.1	0.87	-1.65	0.88
15.295	-0.01	-0.13	1.1	0.94	-1.33	1.06
15.304	0.0	-0.1	1.09	0.94	-1.33	1.06
15.305	0.0	-0.1	1.09	1.08	-0.97	0.97
15.327	0.01	-0.06	1.06	1.08	-0.97	0.97
15.329	0.01	-0.06	1.06	1.2	-0.58	0.6
15.33	0.02	-0.02	1.01	1.2	-0.58	0.6
15.331	0.02	-0.02	1.01	1.31	-0.22	0.2
15.348	0.04	0.04	0.95	1.31	-0.22	0.2
15.35	0.04	0.04	0.95	1.53	0.37	-0.46
15.35	0.04	0.04	0.95	1.53	0.37	-0.46
15.351	0.04	0.04	0.95	1.53	0.37	-0.46
15.354	0.04	0.05	0.93	1.53	0.37	-0.46
15.355	0.04	0.05	0.93	1.59	0.5	-0.63
15.364	0.04	0.06	0.94	1.59	0.5	-0.63
15.365	0.04	0.06	0.94	1.55	0.55	-0.56
15.374	0.03	0.05	0.96	1.55	0.55	-0.56
15.375	0.03	0.05	0.96	1.45	0.5	-0.33
15.385	0.01	0.04	1.0	1.45	0.5	-0.33
15.387	0.01	0.04	1.0	1.26	0.36	0.06
15.393	-0.01	0.03	1.05	1.26	0.36	0.06
15.394	-0.01	0.03	1.05	1.13	0.26	0.52
15.404	-0.01	0.02	1.09	1.13	0.26	0.52
15.405	-0.01	0.02	1.09	1.1	0.19	0.94
15.425	-0.01	0.01	1.12	1.1	0.19	0.94
15.427	-0.01	0.01	1.12	1.06	0.09	1.27
15.427	0.0	0.01	1.15	1.06	0.09	1.27
15.429	0.0	0.01	1.15	1.12	0.08	1.52
15.446	-0.01	0.01	1.13	1.12	0.08	1.52
15.448	-0.01	0.01	1.13	1.06	0.06	1.38
15.449	-0.01	0.01	1.09	1.06	0.06	1.38
15.449	-0.01	0.01	1.09	1.02	-0.02	0.99
15.459	-0.01	0.0	1.04	1.02	-0.02	0.99
15.461	-0.01	0.0	1.04	1.08	-0.08	0.49
15.464	0.0	-0.01	0.99	1.08	-0.08	0.49
15.465	0.0	-0.01	0.99	1.15	-0.2	-0.01
15.474	0.0	-0.02	0.95	1.15	-0.2	-0.01
15.475	0.0	-0.02	0.95	1.25	-0.32	-0.47
15.483	0.01	-0.03	0.91	1.25	-0.32	-0.47
15.485	0.01	-0.03	0.91	1.31	-0.41	-0.82
15.494	0.01	-0.04	0.89	1.31	-0.41	-0.82
15.494	0.01	-0.04	0.89	1.32	-0.52	-0.98
15.504	0.0	-0.06	0.88	1.32	-0.52	-0.98
15.505	0.0	-0.06	0.88	1.29	-0.65	-1.06
15.514	0.0	-0.07	0.89	1.29	-0.65	-1.06
15.518	0.0	-0.07	0.89	1.27	-0.76	-0.99
15.536	0.0	-0.08	0.91	1.27	-0.76	-0.99
15.538	0.0	-0.08	0.91	1.25	-0.86	-0.8
15.539	0.0	-0.09	0.94	1.25	-0.86	-0.8
15.54	0.0	-0.09	0.94	1.23	-0.91	-0.52
15.544	0.0	-0.09	0.97	1.23	-0.91	-0.52
15.546	0.0	-0.09	0.97	1.21	-0.95	-0.23
15.558	0.0	-0.09	1.0	1.21	-0.95	-0.23
15.559	0.0	-0.09	1.0	1.21	-0.94	0.09
15.564	0.0	-0.08	1.03	1.21	-0.94	0.09
15.565	0.0	-0.08	1.03	1.23	-0.89	0.36
15.574	0.01	-0.08	1.05	1.23	-0.89	0.36
15.576	0.01	-0.08	1.05	1.27	-0.8	0.57
15.585	0.01	-0.06	1.07	1.27	-0.8	0.57
15.586	0.01	-0.06	1.07	1.3	-0.64	0.74
15.594	0.02	-0.04	1.08	1.3	-0.64	0.74
15.595	0.02	-0.04	1.08	1.32	-0.42	0.84
15.604	0.02	-0.01	1.07	1.32	-0.42	0.84
15.605	0.02	-0.01	1.07	1.38	-0.15	0.79
15.627	0.03	0.01	1.06	1.38	-0.15	0.79
15.629	0.03	0.01	1.06	1.44	0.12	0.63
15.637	0.04	0.05	1.04	1.44	0.12	0.63
15.638	0.04	0.05	1.04	1.49	0.46	0.41
15.64	0.04	0.08	1.02	1.49	0.46	0.41
15.641	0.04	0.08	1.02	1.5	0.75	0.23
15.653	0.03	0.1	0.98	1.5	0.75	0.23
15.656	0.03	0.1	0.98	1.45	1.03	-0.14
15.657	0.03	0.13	0.95	1.45	1.03	-0.14
15.659	0.03	0.13	0.95	1.43	1.3	-0.41
15.666	0.02	0.14	0.94	1.43	1.3	-0.41
15.669	0.02	0.14	0.94	1.35	1.44	-0.57
15.674	0.01	0.15	0.92	1.35	1.44	-0.57
15.675	0.01	0.15	0.92	1.26	1.46	-0.7
15.685	0.01	0.14	0.91	1.26	1.46	-0.7
15.686	0.01	0.14	0.91	1.21	1.38	-0.78
15.694	0.0	0.12	0.91	1.21	1.38	-0.78
15.695	0.0	0.12	0.91	1.16	1.24	-0.78
15.704	0.0	0.11	0.92	1.16	1.24	-0.78
15.705	0.0	0.11	0.92	1.12	1.09	-0.74
15.726	0.0	0.09	0.93	1.12	1.09	-0.74
15.728	0.0	0.09	0.93	1.04	0.94	-0.63
15.729	-0.01	0.07	0.94	1.04	0.94	-0.63
15.73	-0.01	0.07	0.94	0.93	0.76	-0.49
15.749	-0.02	0.07	0.97	0.93	0.76	-0.49
15.75	-0.02	0.07	0.97	0.85	0.71	-0.29
15.751	-0.02	0.08	0.99	0.85	0.71	-0.29
15.752	-0.02	0.08	0.99	0.83	0.85	-0.01
15.754	-0.02	0.1	1.03	0.83	0.85	-0.01
15.755	-0.02	0.1	1.03	0.81	1.08	0.34
15.766	-0.02	0.12	1.06	0.81	1.08	0.34
15.767	-0.02	0.12	1.06	0.77	1.28	0.58
15.774	-0.02	0.14	1.06	0.77	1.28	0.58
15.775	-0.02	0.14	1.06	0.74	1.44	0.67
15.784	-0.02	0.14	1.06	0.74	1.44	0.67
15.786	-0.02	0.14	1.06	0.68	1.45	0.63
15.794	-0.03	0.13	1.04	0.68	1.45	0.63
15.795	-0.03	0.13	1.04	0.56	1.35	0.44
15.804	-0.04	0.1	1.01	0.56	1.35	0.44
15.805	-0.04	0.1	1.01	0.43	1.12	0.14
15.828	-0.05	0.08	0.99	0.43	1.12	0.14
15.833	-0.05	0.08	0.99	0.34	0.94	-0.09
15.835	-0.06	0.07	0.97	0.34	0.94	-0.09
15.837	-0.06	0.07	0.97	0.25	0.86	-0.29
15.839	-0.07	0.08	0.96	0.25	0.86	-0.29
15.84	-0.07	0.08	0.96	0.2	0.94	-0.36
15.844	-0.07	0.1	0.96	0.2	0.94	-0.36
15.846	-0.07	0.1	0.96	0.19	1.13	-0.34
15.854	-0.07	0.12	0.97	0.19	1.13	-0.34
15.856	-0.07	0.12	0.97	0.21	1.35	-0.31
15.866	-0.07	0.12	0.96	0.21	1.35	-0.31
15.867	-0.07	0.12	0.96	0.23	1.44	-0.32
15.874	-0.06	0.11	0.96	0.23	1.44	-0.32
15.875	-0.06	0.11	0.96	0.3	1.4	-0.38
15.884	-0.05	0.1	0.96	0.3	1.4	-0.38
15.886	-0.05	0.1	0.96	0.38	1.25	-0.4
15.894	-0.05	0.08	0.96	0.38	1.25	-0.4
15.895	-0.05	0.08	0.96	0.46	1.11	-0.33
15.904	-0.03	0.06	0.99	0.46	1.11	-0.33
15.905	-0.03	0.06	0.99	0.64	0.97	-0.09
15.928	0.01	0.04	1.02	0.64	0.97	-0.09
15.93	0.01	0.04	1.02	1.03	0.86	0.25
15.931	0.06	0.04	1.06	1.03	0.86	0.25
15.933	0.06	0.04	1.06	1.54	0.85	0.62
15.935	0.13	0.05	1.09	1.54	0.85	0.62
15.936	0.13	0.05	1.09	2.19	0.98	0.92
15.948	0.2	0.05	1.11	2.19	0.98	0.92
15.95	0.2	0.05	1.11	2.83	1.03	1.09
15.965	0.16	0.02	1.11	2.83	1.03	1.09
15.967	0.16	0.02	1.11	2.46	0.73	1.12
